Shimmer,Shimmer,Shimmer,Shimmer,Shimmer,Shimmer,Shimmer,Shimmer,Shimmer,Shimmer,Shimmer,Shimmer,Shimmer,Shimmer,Shimmer,Shimmer,Shimmer,Shimmer,Shimmer,Shimmer,
Timestamp,Timestamp,Wide Range Accelerometer X,Wide Range Accelerometer X,Wide Range Accelerometer Y,Wide Range Accelerometer Y,Wide Range Accelerometer Z,Wide Range Accelerometer Z,Gyroscope X,Gyroscope X,Gyroscope Y,Gyroscope Y,Gyroscope Z,Gyroscope Z,Magnetometer X,Magnetometer X,Magnetometer Y,Magnetometer Y,Magnetometer Z,Magnetometer Z,
RAW,CAL,RAW,CAL,RAW,CAL,RAW,CAL,RAW,CAL,RAW,CAL,RAW,CAL,RAW,CAL,RAW,CAL,RAW,CAL,
no units,mSecs,no units,m/(sec^2),no units,m/(sec^2),no units,m/(sec^2),no units,deg/sec,no units,deg/sec,no units,deg/sec,no units,local,no units,local,no units,local,
15552368,19433.59375,7264,-4.45370938074801,-12336,-7.56345800122624,-7568,4.64009809932557,990,-70.9146341463415,1163,-60.3658536585366,-771,47.0121951219512,-127,0.552173913043478,69,0.3,163,-0.795121951219512,
15553008,19453.125,7760,-4.75781729000613,-12576,-7.71060698957695,-7584,4.64990803188228,990,-70.9146341463415,1163,-60.3658536585366,-771,47.0121951219512,-130,0.565217391304348,72,0.31304347826087,158,-0.770731707317073,
15553648,19472.65625,8080,-4.9540159411404,-12800,-7.84794604537094,-7376,4.522378908645,1191,-71.5243902439024,1173,-72.6219512195122,-770,46.9512195121951,-127,0.552173913043478,68,0.295652173913043,161,-0.785365853658537,
15554288,19492.1875,7712,-4.72838749233599,-13152,-8.06376456161864,-7040,4.31637032495402,1191,-71.5243902439024,1173,-72.6219512195122,-770,46.9512195121951,-128,0.556521739130435,75,0.326086956521739,155,-0.75609756097561,
15554928,19511.71875,7696,-4.71857755977928,-13424,-8.23053341508277,-7136,4.3752299202943,1259,-69.5731707317073,1141,-76.7682926829268,-739,45.0609756097561,-130,0.565217391304348,73,0.317391304347826,154,-0.751219512195122,
15555568,19531.25,7808,-4.78724708767627,-13744,-8.42673206621704,-7456,4.57142857142857,1224,-61.9512195121951,1016,-74.6341463414634,-695,42.3780487804878,-129,0.560869565217391,78,0.339130434782609,151,-0.736585365853659,
15556208,19550.78125,7792,-4.77743715511956,-14144,-8.67198038013489,-7952,4.8755364806867,1224,-61.9512195121951,1016,-74.6341463414634,-695,42.3780487804878,-128,0.556521739130435,71,0.308695652173913,153,-0.746341463414634,
15556848,19570.3125,7440,-4.56161863887186,-14304,-8.77007970570202,-8272,5.07173513182097,1106,-47.8048780487805,784,-67.4390243902439,-654,39.8780487804878,-125,0.543478260869565,72,0.31304347826087,150,-0.731707317073171,
15557488,19589.84375,6768,-4.14960147148988,-14400,-8.8289393010423,-8448,5.17964438994482,756,-29.4512195121951,483,-46.0975609756098,-563,34.3292682926829,-126,0.547826086956522,71,0.308695652173913,149,-0.726829268292683,
15558128,19609.375,6912,-4.23789086450031,-13984,-8.57388105456775,-8176,5.01287553648069,756,-29.4512195121951,483,-46.0975609756098,-563,34.3292682926829,-128,0.556521739130435,71,0.308695652173913,150,-0.731707317073171,
15558768,19628.90625,7936,-4.86572654812998,-13728,-8.41692213366033,-7680,4.70876762722256,430,-17.0731707317073,280,-26.219512195122,-494,30.1219512195122,-127,0.552173913043478,72,0.31304347826087,148,-0.721951219512195,
15559408,19648.4375,8224,-5.04230533415083,-13584,-8.32863274064991,-7440,4.56161863887186,430,-17.0731707317073,280,-26.219512195122,-494,30.1219512195122,-126,0.547826086956522,70,0.304347826086957,148,-0.721951219512195,
15560048,19667.96875,7632,-4.67933782955242,-13456,-8.2501532801962,-7408,4.54199877375843,528,-9.9390243902439,163,-32.1951219512195,-414,25.2439024390244,-128,0.556521739130435,72,0.31304347826087,147,-0.717073170731707,
15560688,19687.5,6960,-4.26732066217045,-13168,-8.07357449417535,-7440,4.56161863887186,396,-1.46341463414634,24,-24.1463414634146,-354,21.5853658536585,-127,0.552173913043478,75,0.326086956521739,148,-0.721951219512195,
15561328,19707.03125,6720,-4.12017167381974,-12720,-7.79889638258737,-7200,4.41446965052115,396,-1.46341463414634,24,-24.1463414634146,-354,21.5853658536585,-127,0.552173913043478,77,0.334782608695652,148,-0.721951219512195,
15561968,19726.5625,6912,-4.23789086450031,-12544,-7.69098712446352,-7232,4.43408951563458,244,1.95121951219512,-32,-14.8780487804878,-290,17.6829268292683,-128,0.556521739130435,70,0.304347826086957,149,-0.726829268292683,
15562608,19746.09375,7472,-4.58123850398528,-12544,-7.69098712446352,-7232,4.43408951563458,244,1.95121951219512,-32,-14.8780487804878,-290,17.6829268292683,-128,0.556521739130435,69,0.3,150,-0.731707317073171,
15563248,19765.625,7360,-4.51256897608829,-12400,-7.6026977314531,-7344,4.50275904353158,369,3.59756097560976,-59,-22.5,-241,14.6951219512195,-128,0.556521739130435,71,0.308695652173913,148,-0.721951219512195,
15563888,19785.15625,7152,-4.38503985285101,-12368,-7.58307786633967,-7568,4.64009809932557,416,4.39024390243902,-72,-25.3658536585366,-184,11.219512195122,-127,0.552173913043478,74,0.321739130434783,149,-0.726829268292683,
15564528,19804.6875,7152,-4.38503985285101,-12576,-7.71060698957695,-7696,4.71857755977928,416,4.39024390243902,-72,-25.3658536585366,-184,11.219512195122,-126,0.547826086956522,69,0.3,152,-0.741463414634146,
15565168,19824.21875,7104,-4.35561005518087,-13024,-7.98528510116493,-7904,4.84610668301655,360,4.45121951219512,-73,-21.9512195121951,-52,3.17073170731707,-125,0.543478260869565,74,0.321739130434783,150,-0.731707317073171,
15565808,19843.75,7056,-4.32618025751073,-13232,-8.11281422440221,-7968,4.88534641324341,74,6.15853658536585,-101,-4.51219512195122,55,-3.35365853658537,-125,0.543478260869565,72,0.31304347826087,151,-0.736585365853659,
15566448,19863.28125,6992,-4.28694052728387,-12944,-7.93623543838136,-7760,4.75781729000613,74,6.15853658536585,-101,-4.51219512195122,55,-3.35365853658537,-123,0.534782608695652,72,0.31304347826087,152,-0.741463414634146,
15567088,19882.8125,6992,-4.28694052728387,-12496,-7.66155732679338,-7520,4.61066830165543,-162,8.41463414634146,-138,9.87804878048781,44,-2.68292682926829,-126,0.547826086956522,69,0.3,153,-0.746341463414634,
15567728,19902.34375,6800,-4.16922133660331,-12240,-7.50459840588596,-7120,4.36541998773758,-162,8.41463414634146,-138,9.87804878048781,44,-2.68292682926829,-126,0.547826086956522,70,0.304347826086957,153,-0.746341463414634,
15568368,19921.875,6592,-4.04169221336603,-12112,-7.42611894543225,-6752,4.13979153893317,-160,9.26829268292683,-152,9.75609756097561,-32,1.95121951219512,-124,0.539130434782609,70,0.304347826086957,153,-0.746341463414634,
15569008,19941.40625,6720,-4.12017167381974,-12288,-7.5340282035561,-6384,3.91416309012876,-124,5.54878048780488,-91,7.5609756097561,-42,2.5609756097561,-124,0.539130434782609,70,0.304347826086957,152,-0.741463414634146,
15569648,19960.9375,6944,-4.25751072961373,-12640,-7.7498467198038,-6416,3.93378295524218,-124,5.54878048780488,-91,7.5609756097561,-42,2.5609756097561,-125,0.543478260869565,70,0.304347826086957,155,-0.75609756097561,
15570288,19980.46875,7024,-4.3065603923973,-13168,-8.07357449417535,-6704,4.11036174126303,18,-0.548780487804878,9,-1.09756097560976,45,-2.74390243902439,-126,0.547826086956522,72,0.31304347826087,151,-0.736585365853659,
15570928,20000,6960,-4.26732066217045,-13584,-8.32863274064991,-6848,4.19865113427345,18,-0.548780487804878,9,-1.09756097560976,45,-2.74390243902439,-123,0.534782608695652,66,0.28695652173913,153,-0.746341463414634,
15571568,20019.53125,6976,-4.27713059472716,-13680,-8.38749233599019,-6896,4.22808093194359,97,-5.79268292682927,95,-5.91463414634146,153,-9.32926829268293,-123,0.534782608695652,72,0.31304347826087,151,-0.736585365853659,
15572208,20039.0625,6848,-4.19865113427345,-13856,-8.49540159411404,-6864,4.20846106683017,239,-7.5,123,-14.5731707317073,216,-13.1707317073171,-123,0.534782608695652,72,0.31304347826087,154,-0.751219512195122,
15572848,20058.59375,6576,-4.03188228080932,-13824,-8.47578172900061,-6816,4.17903126916002,239,-7.5,123,-14.5731707317073,216,-13.1707317073171,-122,0.530434782608696,74,0.321739130434783,153,-0.746341463414634,
15573488,20078.125,6352,-3.89454322501533,-13776,-8.44635193133047,-6608,4.05150214592275,402,-7.25609756097561,119,-24.5121951219512,205,-12.5,-119,0.517391304347826,68,0.295652173913043,153,-0.746341463414634,
15574128,20097.65625,5872,-3.60024524831392,-13968,-8.56407112201104,-6704,4.11036174126303,402,-7.25609756097561,119,-24.5121951219512,205,-12.5,-120,0.521739130434783,75,0.326086956521739,152,-0.741463414634146,
15574768,20117.1875,5344,-3.27651747394237,-14528,-8.90741876149601,-6976,4.27713059472716,506,-5.42682926829268,89,-30.8536585365854,151,-9.20731707317073,-119,0.517391304347826,71,0.308695652173913,152,-0.741463414634146,
15575408,20136.71875,4800,-2.9429797670141,-15040,-9.22133660331085,-6960,4.26732066217045,413,0.121951219512195,-2,-25.1829268292683,101,-6.15853658536585,-117,0.508695652173913,71,0.308695652173913,153,-0.746341463414634,
15576048,20156.25,4592,-2.81545064377682,-15248,-9.34886572654813,-7104,4.35561005518087,413,0.121951219512195,-2,-25.1829268292683,101,-6.15853658536585,-114,0.495652173913044,68,0.295652173913043,155,-0.75609756097561,
15576688,20175.78125,4688,-2.87431023911711,-15280,-9.36848559166156,-7168,4.39484978540773,180,6.64634146341464,-109,-10.9756097560976,44,-2.68292682926829,-116,0.504347826086957,73,0.317391304347826,153,-0.746341463414634,
15577328,20195.3125,4816,-2.95278969957082,-15040,-9.22133660331085,-7264,4.45370938074801,41,12.8048780487805,-210,-2.5,-52,3.17073170731707,-114,0.495652173913044,72,0.31304347826087,153,-0.746341463414634,
15577968,20214.84375,4768,-2.92335990190067,-14688,-9.00551808706315,-7200,4.41446965052115,41,12.8048780487805,-210,-2.5,-52,3.17073170731707,-114,0.495652173913044,70,0.304347826086957,155,-0.75609756097561,
15578608,20234.375,4640,-2.84488044144697,-14240,-8.73083997547517,-7136,4.3752299202943,8,15.1219512195122,-248,-0.487804878048781,-177,10.7926829268293,-117,0.508695652173913,68,0.295652173913043,157,-0.765853658536585,
15579248,20253.90625,4656,-2.85469037400368,-13680,-8.38749233599019,-7024,4.3065603923973,8,15.1219512195122,-248,-0.487804878048781,-177,10.7926829268293,-116,0.504347826086957,71,0.308695652173913,155,-0.75609756097561,
15579888,20273.4375,4736,-2.90374003678725,-13200,-8.09319435928878,-7120,4.36541998773758,62,12.2560975609756,-201,-3.78048780487805,-274,16.7073170731707,-117,0.508695652173913,69,0.3,156,-0.760975609756098,
15580528,20292.96875,4624,-2.83507050889025,-12784,-7.83813611281422,-7312,4.48313917841815,165,6.40243902439024,-105,-10.0609756097561,-294,17.9268292682927,-119,0.517391304347826,73,0.317391304347826,155,-0.75609756097561,
15581168,20312.5,4544,-2.78602084610668,-12512,-7.67136725935009,-7520,4.61066830165543,165,6.40243902439024,-105,-10.0609756097561,-294,17.9268292682927,-116,0.504347826086957,71,0.308695652173913,155,-0.75609756097561,
15581808,20332.03125,4528,-2.77621091354997,-12352,-7.57326793378295,-7472,4.58123850398528,254,1.28048780487805,-21,-15.4878048780488,-250,15.2439024390244,-118,0.51304347826087,71,0.308695652173913,156,-0.760975609756098,
15582448,20351.5625,4576,-2.80564071122011,-12288,-7.5340282035561,-7424,4.55180870631514,254,1.28048780487805,-21,-15.4878048780488,-250,15.2439024390244,-119,0.517391304347826,68,0.295652173913043,157,-0.765853658536585,
15583088,20371.09375,4624,-2.83507050889025,-12416,-7.61250766400981,-7648,4.68914776210914,345,-2.98780487804878,49,-21.0365853658537,-169,10.3048780487805,-117,0.508695652173913,74,0.321739130434783,155,-0.75609756097561,
15583728,20390.625,4528,-2.77621091354997,-12576,-7.71060698957695,-7856,4.81667688534641,438,-4.9390243902439,81,-26.7073170731707,-101,6.15853658536585,-117,0.508695652173913,73,0.317391304347826,157,-0.765853658536585,
15584368,20410.15625,4336,-2.6584917228694,-12800,-7.84794604537094,-7920,4.85591661557327,438,-4.9390243902439,81,-26.7073170731707,-101,6.15853658536585,-116,0.504347826086957,71,0.308695652173913,157,-0.765853658536585,
15585008,20429.6875,4224,-2.58982219497241,-12928,-7.92642550582465,-8160,5.00306560392397,404,-3.29268292682927,54,-24.6341463414634,-57,3.47560975609756,-116,0.504347826086957,75,0.326086956521739,154,-0.751219512195122,
15585648,20449.21875,4288,-2.62906192519926,-13216,-8.10300429184549,-8352,5.12078479460454,306,0,0,-18.6585365853659,-30,1.82926829268293,-117,0.508695652173913,74,0.321739130434783,154,-0.751219512195122,
15586288,20468.75,4384,-2.68792152053955,-13440,-8.24034334763948,-8368,5.13059472716125,306,0,0,-18.6585365853659,-30,1.82926829268293,-115,0.5,71,0.308695652173913,155,-0.75609756097561,
15586928,20488.28125,4368,-2.67811158798283,-13680,-8.38749233599019,-8352,5.12078479460454,177,3.41463414634146,-56,-10.7926829268293,-11,0.670731707317073,-113,0.491304347826087,70,0.304347826086957,156,-0.760975609756098,
15587568,20507.8125,4576,-2.80564071122011,-13792,-8.45616186388719,-8384,5.14040465971796,177,3.41463414634146,-56,-10.7926829268293,-11,0.670731707317073,-112,0.48695652173913,72,0.31304347826087,157,-0.765853658536585,
15588208,20527.34375,4768,-2.92335990190067,-13776,-8.44635193133047,-8272,5.07173513182097,92,6.70731707317073,-110,-5.60975609756098,4,-0.24390243902439,-114,0.495652173913044,69,0.3,157,-0.765853658536585,
15588848,20546.875,5024,-3.08031882280809,-13584,-8.32863274064991,-8192,5.0226854690374,81,8.29268292682927,-136,-4.9390243902439,-10,0.609756097560976,-115,0.5,71,0.308695652173913,156,-0.760975609756098,
15589488,20566.40625,5056,-3.09993868792152,-13424,-8.23053341508277,-8096,4.96382587369712,81,8.29268292682927,-136,-4.9390243902439,-10,0.609756097560976,-114,0.495652173913044,73,0.317391304347826,157,-0.765853658536585,
15590128,20585.9375,5136,-3.14898835070509,-13232,-8.11281422440221,-7952,4.8755364806867,97,8.47560975609756,-139,-5.91463414634146,-26,1.58536585365854,-114,0.495652173913044,66,0.28695652173913,159,-0.775609756097561,
15590768,20605.46875,5312,-3.25689760882894,-13040,-7.99509503372164,-7808,4.78724708767627,97,8.47560975609756,-139,-5.91463414634146,-26,1.58536585365854,-114,0.495652173913044,68,0.295652173913043,159,-0.775609756097561,
15591408,20625,5280,-3.23727774371551,-12720,-7.79889638258737,-7616,4.66952789699571,130,7.68292682926829,-126,-7.92682926829268,-25,1.52439024390244,-116,0.504347826086957,73,0.317391304347826,156,-0.760975609756098,
15592048,20644.53125,5264,-3.2274678111588,-12640,-7.7498467198038,-7696,4.71857755977928,139,6.82926829268293,-112,-8.47560975609756,-13,0.792682926829268,-113,0.491304347826087,66,0.28695652173913,158,-0.770731707317073,
15592688,20664.0625,5168,-3.16860821581852,-12704,-7.78908645003066,-7808,4.78724708767627,139,6.82926829268293,-112,-8.47560975609756,-13,0.792682926829268,-114,0.495652173913044,69,0.3,157,-0.765853658536585,
15593328,20683.59375,5104,-3.12936848559166,-12720,-7.79889638258737,-7808,4.78724708767627,54,7.80487804878049,-128,-3.29268292682927,1,-0.0609756097560976,-114,0.495652173913044,69,0.3,158,-0.770731707317073,
15593968,20703.125,5024,-3.08031882280809,-12768,-7.82832618025751,-7664,4.69895769466585,-80,8.59756097560976,-141,4.87804878048781,19,-1.15853658536585,-113,0.491304347826087,70,0.304347826086957,158,-0.770731707317073,
15594608,20722.65625,5216,-3.19803801348866,-12896,-7.90680564071122,-7696,4.71857755977928,-80,8.59756097560976,-141,4.87804878048781,19,-1.15853658536585,-114,0.495652173913044,70,0.304347826086957,158,-0.770731707317073,
15595248,20742.1875,5536,-3.39423666462293,-12976,-7.95585530349479,-7744,4.74800735744942,-147,8.04878048780488,-132,8.96341463414634,34,-2.07317073170732,-115,0.5,70,0.304347826086957,159,-0.775609756097561,
15595888,20761.71875,5696,-3.49233599019007,-13040,-7.99509503372164,-7936,4.86572654812998,-147,8.04878048780488,-132,8.96341463414634,34,-2.07317073170732,-115,0.5,70,0.304347826086957,160,-0.780487804878049,
15596528,20781.25,5856,-3.5904353157572,-12960,-7.94604537093807,-8112,4.97363580625383,-106,6.64634146341464,-109,6.46341463414634,35,-2.13414634146341,-114,0.495652173913044,70,0.304347826086957,160,-0.780487804878049,
15597168,20800.78125,5744,-3.52176578786021,-12800,-7.84794604537094,-8128,4.98344573881055,-49,5.24390243902439,-86,2.98780487804878,30,-1.82926829268293,-115,0.5,68,0.295652173913043,159,-0.775609756097561,
15597808,20820.3125,5536,-3.39423666462293,-12768,-7.82832618025751,-8160,5.00306560392397,-49,5.24390243902439,-86,2.98780487804878,30,-1.82926829268293,-113,0.491304347826087,67,0.291304347826087,159,-0.775609756097561,
15598448,20839.84375,5456,-3.34518700183936,-12688,-7.77927651747394,-8160,5.00306560392397,-119,4.45121951219512,-73,7.25609756097561,10,-0.609756097560976,-113,0.491304347826087,66,0.28695652173913,160,-0.780487804878049,
15599088,20859.375,5760,-3.53157572041692,-12592,-7.72041692213366,-8240,5.05211526670754,-119,4.45121951219512,-73,7.25609756097561,10,-0.609756097560976,-113,0.491304347826087,71,0.308695652173913,159,-0.775609756097561,
15599728,20878.90625,6048,-3.70815450643777,-12608,-7.73022685469037,-8368,5.13059472716125,-137,4.02439024390244,-66,8.35365853658537,17,-1.03658536585366,-115,0.5,70,0.304347826086957,160,-0.780487804878049,
15600368,20898.4375,6304,-3.86511342734519,-12544,-7.69098712446352,-8544,5.2385039852851,-54,2.68292682926829,-44,3.29268292682927,24,-1.46341463414634,-116,0.504347826086957,69,0.3,158,-0.770731707317073,
15601008,20917.96875,6208,-3.8062538320049,-12560,-7.70079705702023,-8640,5.29736358062538,-54,2.68292682926829,-44,3.29268292682927,24,-1.46341463414634,-117,0.508695652173913,68,0.295652173913043,159,-0.775609756097561,
15601648,20937.5,6128,-3.75720416922134,-12528,-7.68117719190681,-8640,5.29736358062538,-14,1.34146341463415,-22,0.853658536585366,19,-1.15853658536585,-115,0.5,68,0.295652173913043,159,-0.775609756097561,
15602288,20957.03125,6192,-3.79644389944819,-12576,-7.71060698957695,-8576,5.25812385039853,-14,1.34146341463415,-22,0.853658536585366,19,-1.15853658536585,-117,0.508695652173913,72,0.31304347826087,157,-0.765853658536585,
15602928,20976.5625,6144,-3.76701410177805,-12512,-7.67136725935009,-8592,5.26793378295524,-1,1.03658536585366,-17,0.0609756097560976,12,-0.731707317073171,-116,0.504347826086957,66,0.28695652173913,159,-0.775609756097561,
15603568,20996.09375,6048,-3.70815450643777,-12496,-7.66155732679338,-8528,5.22869405272839,-7,2.31707317073171,-38,0.426829268292683,10,-0.609756097560976,-114,0.495652173913044,69,0.3,157,-0.765853658536585,
15604208,21015.625,5920,-3.62967504598406,-12576,-7.71060698957695,-8480,5.19926425505825,-7,2.31707317073171,-38,0.426829268292683,10,-0.609756097560976,-114,0.495652173913044,71,0.308695652173913,158,-0.770731707317073,
15604848,21035.15625,5776,-3.54138565297364,-12528,-7.68117719190681,-8320,5.10116492949111,-51,4.26829268292683,-70,3.10975609756098,19,-1.15853658536585,-114,0.495652173913044,66,0.28695652173913,159,-0.775609756097561,
15605488,21054.6875,5680,-3.48252605763335,-12576,-7.71060698957695,-8144,4.99325567136726,-147,5.60975609756098,-92,8.96341463414634,30,-1.82926829268293,-116,0.504347826086957,66,0.28695652173913,159,-0.775609756097561,
15606128,21074.21875,5632,-3.45309625996321,-12576,-7.71060698957695,-7872,4.82648681790313,-147,5.60975609756098,-92,8.96341463414634,30,-1.82926829268293,-117,0.508695652173913,70,0.304347826086957,159,-0.775609756097561,
15606768,21093.75,5632,-3.45309625996321,-12592,-7.72041692213366,-7632,4.67933782955242,-277,5.30487804878049,-87,16.890243902439,43,-2.6219512195122,-116,0.504347826086957,69,0.3,160,-0.780487804878049,
15607408,21113.28125,5632,-3.45309625996321,-12720,-7.79889638258737,-7488,4.591048436542,-277,5.30487804878049,-87,16.890243902439,43,-2.6219512195122,-116,0.504347826086957,69,0.3,159,-0.775609756097561,
15608048,21132.8125,5584,-3.42366646229307,-12832,-7.86756591048437,-7232,4.43408951563458,-385,2.98780487804878,-49,23.4756097560976,64,-3.90243902439024,-117,0.508695652173913,73,0.317391304347826,158,-0.770731707317073,
15608688,21152.34375,5552,-3.40404659717964,-12960,-7.94604537093807,-7232,4.43408951563458,-472,0.0609756097560976,-1,28.7804878048781,85,-5.18292682926829,-118,0.51304347826087,68,0.295652173913043,159,-0.775609756097561,
15609328,21171.875,5776,-3.54138565297364,-13152,-8.06376456161864,-6976,4.27713059472716,-472,0.0609756097560976,-1,28.7804878048781,85,-5.18292682926829,-118,0.51304347826087,70,0.304347826086957,157,-0.765853658536585,
15609968,21191.40625,5952,-3.64929491109749,-13312,-8.16186388718578,-6928,4.24770079705702,-407,-2.31707317073171,38,24.8170731707317,115,-7.01219512195122,-117,0.508695652173913,72,0.31304347826087,159,-0.775609756097561,
15610608,21210.9375,5904,-3.61986511342735,-13456,-8.2501532801962,-6848,4.19865113427345,-407,-2.31707317073171,38,24.8170731707317,115,-7.01219512195122,-117,0.508695652173913,72,0.31304347826087,157,-0.765853658536585,
15611248,21230.46875,5840,-3.58062538320049,-13472,-8.25996321275291,-6528,4.00245248313918,-309,-4.14634146341463,68,18.8414634146341,133,-8.10975609756098,-118,0.51304347826087,70,0.304347826086957,157,-0.765853658536585,
15611888,21250,5968,-3.6591048436542,-13632,-8.35806253832005,-6560,4.02207234825261,-203,-6.89024390243902,113,12.3780487804878,137,-8.35365853658537,-118,0.51304347826087,70,0.304347826086957,157,-0.765853658536585,
15612528,21269.53125,5824,-3.57081545064378,-13760,-8.43654199877376,-6576,4.03188228080932,-203,-6.89024390243902,113,12.3780487804878,137,-8.35365853658537,-118,0.51304347826087,68,0.295652173913043,157,-0.765853658536585,
15613168,21289.0625,5744,-3.52176578786021,-13888,-8.51502145922747,-6592,4.04169221336603,-110,-8.29268292682927,136,6.70731707317073,133,-8.10975609756098,-120,0.521739130434783,73,0.317391304347826,155,-0.75609756097561,
15613808,21308.59375,5584,-3.42366646229307,-13872,-8.50521152667075,-6576,4.03188228080932,-90,-8.96341463414634,147,5.48780487804878,115,-7.01219512195122,-122,0.530434782608696,73,0.317391304347826,155,-0.75609756097561,
15614448,21328.125,5440,-3.33537706928265,-13680,-8.38749233599019,-6624,4.06131207847946,-90,-8.96341463414634,147,5.48780487804878,115,-7.01219512195122,-117,0.508695652173913,73,0.317391304347826,154,-0.751219512195122,
15615088,21347.65625,5392,-3.30594727161251,-13456,-8.2501532801962,-6496,3.98283261802575,-121,-10.0609756097561,165,7.37804878048781,113,-6.89024390243902,-119,0.517391304347826,70,0.304347826086957,153,-0.746341463414634,
15615728,21367.1875,5616,-3.4432863274065,-13248,-8.12262415695892,-6592,4.04169221336603,-121,-10.0609756097561,165,7.37804878048781,113,-6.89024390243902,-117,0.508695652173913,73,0.317391304347826,154,-0.751219512195122,
15616368,21386.71875,5776,-3.54138565297364,-13168,-8.07357449417535,-6592,4.04169221336603,-96,-11.7073170731707,192,5.85365853658537,140,-8.53658536585366,-120,0.521739130434783,69,0.3,152,-0.741463414634146,
15617008,21406.25,5904,-3.61986511342735,-13120,-8.04414469650521,-6736,4.12998160637646,-36,-12.3170731707317,202,2.19512195121951,178,-10.8536585365854,-120,0.521739130434783,71,0.308695652173913,152,-0.741463414634146,
15617648,21425.78125,5968,-3.6591048436542,-13168,-8.07357449417535,-6832,4.18884120171674,-36,-12.3170731707317,202,2.19512195121951,178,-10.8536585365854,-119,0.517391304347826,78,0.339130434782609,150,-0.731707317073171,
15618288,21445.3125,6048,-3.70815450643777,-13248,-8.12262415695892,-6832,4.18884120171674,-23,-12.2560975609756,201,1.40243902439024,209,-12.7439024390244,-117,0.508695652173913,77,0.334782608695652,151,-0.736585365853659,
15618928,21464.84375,6064,-3.71796443899448,-13344,-8.1814837522992,-6784,4.1594114040466,-23,-12.2560975609756,201,1.40243902439024,209,-12.7439024390244,-120,0.521739130434783,79,0.343478260869565,148,-0.721951219512195,
15619568,21484.375,6208,-3.8062538320049,-13488,-8.26977314530963,-6896,4.22808093194359,-44,-11.8292682926829,194,2.68292682926829,224,-13.6585365853659,-116,0.504347826086957,73,0.317391304347826,148,-0.721951219512195,
15620208,21503.90625,6256,-3.83568362967505,-13584,-8.32863274064991,-6944,4.25751072961373,-69,-10.7926829268293,177,4.20731707317073,225,-13.719512195122,-118,0.51304347826087,74,0.321739130434783,148,-0.721951219512195,
15620848,21523.4375,6240,-3.82587369711833,-13744,-8.42673206621704,-6960,4.26732066217045,-69,-10.7926829268293,177,4.20731707317073,225,-13.719512195122,-116,0.504347826086957,76,0.330434782608696,147,-0.717073170731707,
15621488,21542.96875,6240,-3.82587369711833,-13632,-8.35806253832005,-6848,4.19865113427345,-116,-8.71951219512195,143,7.07317073170732,199,-12.1341463414634,-115,0.5,78,0.339130434782609,146,-0.712195121951219,
15622128,21562.5,6304,-3.86511342734519,-13728,-8.41692213366033,-6752,4.13979153893317,-165,-7.01219512195122,115,10.0609756097561,168,-10.2439024390244,-114,0.495652173913044,74,0.321739130434783,147,-0.717073170731707,
15622768,21582.03125,6368,-3.90435315757204,-13696,-8.3973022685469,-6672,4.0907418761496,-165,-7.01219512195122,115,10.0609756097561,168,-10.2439024390244,-114,0.495652173913044,76,0.330434782608696,147,-0.717073170731707,
15623408,21601.5625,6336,-3.88473329245861,-13712,-8.40711220110362,-6608,4.05150214592275,-215,-5.1219512195122,84,13.109756097561,135,-8.23170731707317,-113,0.491304347826087,75,0.326086956521739,146,-0.712195121951219,
15624048,21621.09375,6288,-3.85530349478847,-13744,-8.42673206621704,-6688,4.10055180870631,-215,-5.1219512195122,84,13.109756097561,135,-8.23170731707317,-116,0.504347826086957,76,0.330434782608696,144,-0.702439024390244,
15624688,21640.625,6368,-3.90435315757204,-13792,-8.45616186388719,-6704,4.11036174126303,-256,-2.98780487804878,49,15.609756097561,111,-6.76829268292683,-116,0.504347826086957,72,0.31304347826087,147,-0.717073170731707,
15625328,21660.15625,6256,-3.83568362967505,-13840,-8.48559166155733,-6768,4.14960147148988,-313,-0.792682926829268,13,19.0853658536585,100,-6.09756097560976,-115,0.5,75,0.326086956521739,145,-0.707317073170732,
15625968,21679.6875,6464,-3.96321275291232,-13920,-8.53464132434089,-6672,4.0907418761496,-313,-0.792682926829268,13,19.0853658536585,100,-6.09756097560976,-116,0.504347826086957,78,0.339130434782609,142,-0.692682926829268,
15626608,21699.21875,6560,-4.02207234825261,-13936,-8.54445125689761,-6576,4.03188228080932,-328,0.975609756097561,-16,20,89,-5.42682926829268,-117,0.508695652173913,76,0.330434782608696,144,-0.702439024390244,
15627248,21718.75,6496,-3.98283261802575,-13808,-8.4659717964439,-6608,4.05150214592275,-328,0.975609756097561,-16,20,89,-5.42682926829268,-115,0.5,73,0.317391304347826,143,-0.697560975609756,
15627888,21738.28125,6480,-3.97302268546904,-13616,-8.34825260576334,-6592,4.04169221336603,-329,1.64634146341463,-27,20.0609756097561,76,-4.63414634146342,-115,0.5,73,0.317391304347826,144,-0.702439024390244,
15628528,21757.8125,6576,-4.03188228080932,-13648,-8.36787247087676,-6640,4.07112201103617,-313,1.64634146341463,-27,19.0853658536585,74,-4.51219512195122,-116,0.504347826086957,76,0.330434782608696,144,-0.702439024390244,
15629168,21777.34375,6672,-4.0907418761496,-13760,-8.43654199877376,-6640,4.07112201103617,-313,1.64634146341463,-27,19.0853658536585,74,-4.51219512195122,-117,0.508695652173913,78,0.339130434782609,145,-0.707317073170732,
15629808,21796.875,6656,-4.08093194359289,-13776,-8.44635193133047,-6560,4.02207234825261,-288,1.95121951219512,-32,17.5609756097561,71,-4.32926829268293,-115,0.5,77,0.334782608695652,142,-0.692682926829268,
15630448,21816.40625,6704,-4.11036174126303,-13840,-8.48559166155733,-6448,3.95340282035561,-288,1.95121951219512,-32,17.5609756097561,71,-4.32926829268293,-115,0.5,73,0.317391304347826,144,-0.702439024390244,
15631088,21835.9375,6752,-4.13979153893317,-13824,-8.47578172900061,-6448,3.95340282035561,-224,2.13414634146341,-35,13.6585365853659,61,-3.71951219512195,-117,0.508695652173913,78,0.339130434782609,145,-0.707317073170732,
15631728,21855.46875,6672,-4.0907418761496,-13792,-8.45616186388719,-6336,3.88473329245861,-156,1.58536585365854,-26,9.51219512195122,45,-2.74390243902439,-122,0.530434782608696,76,0.330434782608696,142,-0.692682926829268,
15632368,21875,6608,-4.05150214592275,-13968,-8.56407112201104,-6288,3.85530349478847,-156,1.58536585365854,-26,9.51219512195122,45,-2.74390243902439,-117,0.508695652173913,74,0.321739130434783,144,-0.702439024390244,
15633008,21894.53125,6592,-4.04169221336603,-14064,-8.62293071735132,-6304,3.86511342734519,-131,2.25609756097561,-37,7.98780487804878,32,-1.95121951219512,-116,0.504347826086957,76,0.330434782608696,143,-0.697560975609756,
15633648,21914.0625,6544,-4.01226241569589,-14080,-8.63274064990803,-6320,3.8749233599019,-137,2.6219512195122,-43,8.35365853658537,15,-0.914634146341463,-117,0.508695652173913,76,0.330434782608696,142,-0.692682926829268,
15634288,21933.59375,6512,-3.99264255058246,-14160,-8.6817903126916,-6208,3.8062538320049,-137,2.6219512195122,-43,8.35365853658537,15,-0.914634146341463,-118,0.51304347826087,76,0.330434782608696,142,-0.692682926829268,
15634928,21953.125,6448,-3.95340282035561,-14192,-8.70141017780503,-6032,3.69834457388105,-149,3.10975609756098,-51,9.08536585365854,-9,0.548780487804878,-116,0.504347826086957,75,0.326086956521739,144,-0.702439024390244,
15635568,21972.65625,6544,-4.01226241569589,-14128,-8.66217044757817,-5968,3.6591048436542,-149,3.10975609756098,-51,9.08536585365854,-9,0.548780487804878,-118,0.51304347826087,75,0.326086956521739,143,-0.697560975609756,
15636208,21992.1875,6496,-3.98283261802575,-14080,-8.63274064990803,-5952,3.64929491109749,-139,3.59756097560976,-59,8.47560975609756,-29,1.76829268292683,-116,0.504347826086957,76,0.330434782608696,142,-0.692682926829268,
15636848,22011.71875,6528,-4.00245248313918,-14096,-8.64255058246474,-5824,3.57081545064378,-95,3.84146341463415,-63,5.79268292682927,-45,2.74390243902439,-120,0.521739130434783,81,0.352173913043478,141,-0.68780487804878,
15637488,22031.25,6528,-4.00245248313918,-13984,-8.57388105456775,-5728,3.51195585530349,-95,3.84146341463415,-63,5.79268292682927,-45,2.74390243902439,-119,0.517391304347826,73,0.317391304347826,145,-0.707317073170732,
15638128,22050.78125,6496,-3.98283261802575,-14000,-8.58369098712446,-5712,3.50214592274678,-11,3.90243902439024,-64,0.670731707317073,-54,3.29268292682927,-119,0.517391304347826,75,0.326086956521739,142,-0.692682926829268,
15638768,22070.3125,6368,-3.90435315757204,-13968,-8.56407112201104,-5632,3.45309625996321,-11,3.90243902439024,-64,0.670731707317073,-54,3.29268292682927,-118,0.51304347826087,74,0.321739130434783,142,-0.692682926829268,
15639408,22089.84375,6256,-3.83568362967505,-13888,-8.51502145922747,-5488,3.36480686695279,47,3.84146341463415,-63,-2.86585365853659,-59,3.59756097560976,-118,0.51304347826087,77,0.334782608695652,142,-0.692682926829268,
15640048,22109.375,6176,-3.78663396689148,-13936,-8.54445125689761,-5488,3.36480686695279,50,3.96341463414634,-65,-3.04878048780488,-53,3.23170731707317,-118,0.51304347826087,77,0.334782608695652,144,-0.702439024390244,
15640688,22128.90625,6144,-3.76701410177805,-13888,-8.51502145922747,-5552,3.40404659717964,50,3.96341463414634,-65,-3.04878048780488,-53,3.23170731707317,-118,0.51304347826087,77,0.334782608695652,144,-0.702439024390244,
15641328,22148.4375,6048,-3.70815450643777,-13920,-8.53464132434089,-5424,3.32556713672594,27,4.57317073170732,-75,-1.64634146341463,-46,2.80487804878049,-118,0.51304347826087,73,0.317391304347826,143,-0.697560975609756,
15641968,22167.96875,6112,-3.74739423666462,-14016,-8.59350091968118,-5424,3.32556713672594,1,5.24390243902439,-86,-0.0609756097560976,-42,2.5609756097561,-117,0.508695652173913,74,0.321739130434783,143,-0.697560975609756,
15642608,22187.5,6160,-3.77682403433476,-14032,-8.60331085223789,-5360,3.28632740649908,1,5.24390243902439,-86,-0.0609756097560976,-42,2.5609756097561,-119,0.517391304347826,79,0.343478260869565,143,-0.697560975609756,
15643248,22207.03125,6208,-3.8062538320049,-14208,-8.71122011036174,-5328,3.26670754138565,2,5.30487804878049,-87,-0.121951219512195,-49,2.98780487804878,-119,0.517391304347826,78,0.339130434782609,142,-0.692682926829268,
15643888,22226.5625,6224,-3.81606376456162,-14192,-8.70141017780503,-5232,3.20784794604537,2,5.30487804878049,-87,-0.121951219512195,-49,2.98780487804878,-118,0.51304347826087,73,0.317391304347826,145,-0.707317073170732,
15644528,22246.09375,6192,-3.79644389944819,-14192,-8.70141017780503,-5296,3.24708767627223,3,4.69512195121951,-77,-0.182926829268293,-66,4.02439024390244,-118,0.51304347826087,73,0.317391304347826,146,-0.712195121951219,
15645168,22265.625,6176,-3.78663396689148,-14224,-8.72103004291846,-5296,3.24708767627223,-7,3.84146341463415,-63,0.426829268292683,-82,5,-118,0.51304347826087,76,0.330434782608696,144,-0.702439024390244,
15645808,22285.15625,6112,-3.74739423666462,-14192,-8.70141017780503,-5312,3.25689760882894,-7,3.84146341463415,-63,0.426829268292683,-82,5,-120,0.521739130434783,76,0.330434782608696,143,-0.697560975609756,
15646448,22304.6875,6064,-3.71796443899448,-14080,-8.63274064990803,-5344,3.27651747394237,-4,2.98780487804878,-49,0.24390243902439,-94,5.73170731707317,-118,0.51304347826087,74,0.321739130434783,144,-0.702439024390244,
15647088,22324.21875,6032,-3.69834457388105,-14032,-8.60331085223789,-5376,3.29613733905579,-4,2.98780487804878,-49,0.24390243902439,-94,5.73170731707317,-122,0.530434782608696,74,0.321739130434783,144,-0.702439024390244,
15647728,22343.75,6080,-3.7277743715512,-14000,-8.58369098712446,-5456,3.34518700183936,12,2.13414634146341,-35,-0.731707317073171,-96,5.85365853658537,-119,0.517391304347826,75,0.326086956521739,145,-0.707317073170732,
15648368,22363.28125,5840,-3.58062538320049,-13984,-8.57388105456775,-5504,3.3746167995095,12,1.70731707317073,-28,-0.731707317073171,-83,5.0609756097561,-123,0.534782608695652,78,0.339130434782609,144,-0.702439024390244,
15649008,22382.8125,5840,-3.58062538320049,-13984,-8.57388105456775,-5456,3.34518700183936,12,1.70731707317073,-28,-0.731707317073171,-83,5.0609756097561,-121,0.526086956521739,73,0.317391304347826,145,-0.707317073170732,
15649648,22402.34375,5856,-3.5904353157572,-13984,-8.57388105456775,-5488,3.36480686695279,3,0.792682926829268,-13,-0.182926829268293,-62,3.78048780487805,-120,0.521739130434783,75,0.326086956521739,144,-0.702439024390244,
15650288,22421.875,5808,-3.56100551808706,-13968,-8.56407112201104,-5504,3.3746167995095,2,0.121951219512195,-2,-0.121951219512195,-33,2.01219512195122,-119,0.517391304347826,72,0.31304347826087,144,-0.702439024390244,
15650928,22441.40625,5840,-3.58062538320049,-13984,-8.57388105456775,-5488,3.36480686695279,2,0.121951219512195,-2,-0.121951219512195,-33,2.01219512195122,-119,0.517391304347826,72,0.31304347826087,143,-0.697560975609756,
15651568,22460.9375,5808,-3.56100551808706,-13968,-8.56407112201104,-5536,3.39423666462293,9,-0.304878048780488,5,-0.548780487804878,-6,0.365853658536585,-121,0.526086956521739,77,0.334782608695652,144,-0.702439024390244,
15652208,22480.46875,5872,-3.60024524831392,-13968,-8.56407112201104,-5664,3.47271612507664,9,-0.304878048780488,5,-0.548780487804878,-6,0.365853658536585,-121,0.526086956521739,76,0.330434782608696,144,-0.702439024390244,
15652848,22500,5920,-3.62967504598406,-14064,-8.62293071735132,-5680,3.48252605763335,20,-0.914634146341463,15,-1.21951219512195,12,-0.731707317073171,-119,0.517391304347826,76,0.330434782608696,143,-0.697560975609756,
15653488,22519.53125,5984,-3.66891477621091,-14144,-8.67198038013489,-5600,3.43347639484979,33,-0.487804878048781,8,-2.01219512195122,30,-1.82926829268293,-119,0.517391304347826,73,0.317391304347826,145,-0.707317073170732,
15654128,22539.0625,5936,-3.63948497854077,-14192,-8.70141017780503,-5712,3.50214592274678,33,-0.487804878048781,8,-2.01219512195122,30,-1.82926829268293,-119,0.517391304347826,76,0.330434782608696,142,-0.692682926829268,
15654768,22558.59375,5904,-3.61986511342735,-14176,-8.69160024524831,-5776,3.54138565297364,17,0.182926829268293,-3,-1.03658536585366,34,-2.07317073170732,-119,0.517391304347826,76,0.330434782608696,142,-0.692682926829268,
15655408,22578.125,5952,-3.64929491109749,-14128,-8.66217044757817,-5840,3.58062538320049,17,0.182926829268293,-3,-1.03658536585366,34,-2.07317073170732,-119,0.517391304347826,78,0.339130434782609,142,-0.692682926829268,
15656048,22597.65625,6000,-3.67872470876763,-14128,-8.66217044757817,-5776,3.54138565297364,3,1.09756097560976,-18,-0.182926829268293,30,-1.82926829268293,-119,0.517391304347826,74,0.321739130434783,145,-0.707317073170732,
15656688,22617.1875,6064,-3.71796443899448,-14080,-8.63274064990803,-5680,3.48252605763335,-19,2.13414634146341,-35,1.15853658536585,29,-1.76829268292683,-118,0.51304347826087,75,0.326086956521739,142,-0.692682926829268,
15657328,22636.71875,6032,-3.69834457388105,-14032,-8.60331085223789,-5552,3.40404659717964,-19,2.13414634146341,-35,1.15853658536585,29,-1.76829268292683,-118,0.51304347826087,74,0.321739130434783,142,-0.692682926829268,
15657968,22656.25,6112,-3.74739423666462,-14016,-8.59350091968118,-5584,3.42366646229307,-18,2.4390243902439,-40,1.09756097560976,26,-1.58536585365854,-120,0.521739130434783,76,0.330434782608696,142,-0.692682926829268,
15658608,22675.78125,6112,-3.74739423666462,-14096,-8.64255058246474,-5664,3.47271612507664,-18,2.4390243902439,-40,1.09756097560976,26,-1.58536585365854,-119,0.517391304347826,73,0.317391304347826,144,-0.702439024390244,
15659248,22695.3125,6112,-3.74739423666462,-14080,-8.63274064990803,-5728,3.51195585530349,-25,3.10975609756098,-51,1.52439024390244,33,-2.01219512195122,-119,0.517391304347826,75,0.326086956521739,142,-0.692682926829268,
15659888,22714.84375,6048,-3.70815450643777,-14064,-8.62293071735132,-5728,3.51195585530349,-42,4.20731707317073,-69,2.5609756097561,32,-1.95121951219512,-118,0.51304347826087,73,0.317391304347826,143,-0.697560975609756,
15660528,22734.375,6064,-3.71796443899448,-14016,-8.59350091968118,-5696,3.49233599019007,-42,4.20731707317073,-69,2.5609756097561,32,-1.95121951219512,-120,0.521739130434783,79,0.343478260869565,143,-0.697560975609756,
15661168,22753.90625,6080,-3.7277743715512,-14048,-8.6131207847946,-5568,3.41385652973636,-58,5,-82,3.53658536585366,21,-1.28048780487805,-118,0.51304347826087,73,0.317391304347826,143,-0.697560975609756,
15661808,22773.4375,6240,-3.82587369711833,-14144,-8.67198038013489,-5536,3.39423666462293,-77,5.18292682926829,-85,4.69512195121951,5,-0.304878048780488,-120,0.521739130434783,76,0.330434782608696,142,-0.692682926829268,
15662448,22792.96875,6224,-3.81606376456162,-14096,-8.64255058246474,-5568,3.41385652973636,-77,5.18292682926829,-85,4.69512195121951,5,-0.304878048780488,-121,0.526086956521739,77,0.334782608695652,145,-0.707317073170732,
15663088,22812.5,6176,-3.78663396689148,-14032,-8.60331085223789,-5456,3.34518700183936,-65,4.32926829268293,-71,3.96341463414634,-10,0.609756097560976,-120,0.521739130434783,75,0.326086956521739,143,-0.697560975609756,
15663728,22832.03125,6192,-3.79644389944819,-13984,-8.57388105456775,-5472,3.35499693439608,-65,4.32926829268293,-71,3.96341463414634,-10,0.609756097560976,-117,0.508695652173913,73,0.317391304347826,145,-0.707317073170732,
15664368,22851.5625,6240,-3.82587369711833,-13968,-8.56407112201104,-5472,3.35499693439608,-37,2.80487804878049,-46,2.25609756097561,-17,1.03658536585366,-119,0.517391304347826,79,0.343478260869565,143,-0.697560975609756,
15665008,22871.09375,6128,-3.75720416922134,-13984,-8.57388105456775,-5536,3.39423666462293,9,1.64634146341463,-27,-0.548780487804878,-9,0.548780487804878,-119,0.517391304347826,77,0.334782608695652,141,-0.68780487804878,
15665648,22890.625,6048,-3.70815450643777,-14032,-8.60331085223789,-5536,3.39423666462293,9,1.64634146341463,-27,-0.548780487804878,-9,0.548780487804878,-116,0.504347826086957,76,0.330434782608696,142,-0.692682926829268,
15666288,22910.15625,6000,-3.67872470876763,-13984,-8.57388105456775,-5504,3.3746167995095,16,1.28048780487805,-21,-0.975609756097561,-9,0.548780487804878,-118,0.51304347826087,76,0.330434782608696,144,-0.702439024390244,
15666928,22929.6875,5936,-3.63948497854077,-13952,-8.55426118945432,-5488,3.36480686695279,16,1.28048780487805,-21,-0.975609756097561,-9,0.548780487804878,-120,0.521739130434783,75,0.326086956521739,143,-0.697560975609756,
15667568,22949.21875,5952,-3.64929491109749,-13984,-8.57388105456775,-5456,3.34518700183936,-4,1.21951219512195,-20,0.24390243902439,-12,0.731707317073171,-118,0.51304347826087,76,0.330434782608696,143,-0.697560975609756,
15668208,22968.75,5920,-3.62967504598406,-14000,-8.58369098712446,-5424,3.32556713672594,-29,0.853658536585366,-14,1.76829268292683,0,0,-119,0.517391304347826,80,0.347826086956522,142,-0.692682926829268,
15668848,22988.28125,6128,-3.75720416922134,-14032,-8.60331085223789,-5472,3.35499693439608,-29,0.853658536585366,-14,1.76829268292683,0,0,-119,0.517391304347826,73,0.317391304347826,143,-0.697560975609756,
15669488,23007.8125,6176,-3.78663396689148,-14000,-8.58369098712446,-5600,3.43347639484979,-18,0.304878048780488,-5,1.09756097560976,13,-0.792682926829268,-120,0.521739130434783,76,0.330434782608696,144,-0.702439024390244,
15670128,23027.34375,6160,-3.77682403433476,-13984,-8.57388105456775,-5520,3.38442673206622,12,-0.182926829268293,3,-0.731707317073171,12,-0.731707317073171,-118,0.51304347826087,72,0.31304347826087,141,-0.68780487804878,
15670768,23046.875,6080,-3.7277743715512,-14000,-8.58369098712446,-5520,3.38442673206622,12,-0.182926829268293,3,-0.731707317073171,12,-0.731707317073171,-117,0.508695652173913,73,0.317391304347826,142,-0.692682926829268,
15671408,23066.40625,6048,-3.70815450643777,-14048,-8.6131207847946,-5488,3.36480686695279,14,-0.121951219512195,2,-0.853658536585366,-2,0.121951219512195,-120,0.521739130434783,77,0.334782608695652,143,-0.697560975609756,
15672048,23085.9375,6080,-3.7277743715512,-14096,-8.64255058246474,-5520,3.38442673206622,14,-0.121951219512195,2,-0.853658536585366,-2,0.121951219512195,-119,0.517391304347826,78,0.339130434782609,143,-0.697560975609756,
15672688,23105.46875,6096,-3.73758430410791,-14112,-8.65236051502146,-5664,3.47271612507664,-1,0.426829268292683,-7,0.0609756097560976,-8,0.487804878048781,-118,0.51304347826087,73,0.317391304347826,143,-0.697560975609756,
15673328,23125,6160,-3.77682403433476,-14112,-8.65236051502146,-5584,3.42366646229307,-8,1.09756097560976,-18,0.487804878048781,-3,0.182926829268293,-117,0.508695652173913,75,0.326086956521739,142,-0.692682926829268,
15673968,23144.53125,6144,-3.76701410177805,-14064,-8.62293071735132,-5600,3.43347639484979,-8,1.09756097560976,-18,0.487804878048781,-3,0.182926829268293,-119,0.517391304347826,76,0.330434782608696,142,-0.692682926829268,
15674608,23164.0625,6160,-3.77682403433476,-14096,-8.64255058246474,-5552,3.40404659717964,7,1.15853658536585,-19,-0.426829268292683,-3,0.182926829268293,-118,0.51304347826087,77,0.334782608695652,141,-0.68780487804878,
15675248,23183.59375,6080,-3.7277743715512,-14048,-8.6131207847946,-5504,3.3746167995095,7,1.15853658536585,-19,-0.426829268292683,-3,0.182926829268293,-116,0.504347826086957,74,0.321739130434783,143,-0.697560975609756,
15675888,23203.125,6032,-3.69834457388105,-14080,-8.63274064990803,-5472,3.35499693439608,3,1.58536585365854,-26,-0.182926829268293,-13,0.792682926829268,-119,0.517391304347826,74,0.321739130434783,142,-0.692682926829268,
15676528,23222.65625,6048,-3.70815450643777,-14080,-8.63274064990803,-5440,3.33537706928265,-8,1.52439024390244,-25,0.487804878048781,-19,1.15853658536585,-117,0.508695652173913,77,0.334782608695652,141,-0.68780487804878,
15677168,23242.1875,6112,-3.74739423666462,-14080,-8.63274064990803,-5376,3.29613733905579,-8,1.52439024390244,-25,0.487804878048781,-19,1.15853658536585,-116,0.504347826086957,77,0.334782608695652,141,-0.68780487804878,
15677808,23261.71875,6160,-3.77682403433476,-14176,-8.69160024524831,-5440,3.33537706928265,7,0.609756097560976,-10,-0.426829268292683,-16,0.975609756097561,-121,0.526086956521739,78,0.339130434782609,141,-0.68780487804878,
15678448,23281.25,6224,-3.81606376456162,-14096,-8.64255058246474,-5488,3.36480686695279,55,-0.426829268292683,7,-3.35365853658537,-7,0.426829268292683,-121,0.526086956521739,75,0.326086956521739,141,-0.68780487804878,
15679088,23300.78125,6192,-3.79644389944819,-14096,-8.64255058246474,-5408,3.31575720416922,55,-0.426829268292683,7,-3.35365853658537,-7,0.426829268292683,-117,0.508695652173913,74,0.321739130434783,141,-0.68780487804878,
15679728,23320.3125,6112,-3.74739423666462,-14080,-8.63274064990803,-5408,3.31575720416922,90,-0.24390243902439,4,-5.48780487804878,-6,0.365853658536585,-116,0.504347826086957,73,0.317391304347826,142,-0.692682926829268,
15680368,23339.84375,6016,-3.68853464132434,-14144,-8.67198038013489,-5520,3.38442673206622,90,-0.24390243902439,4,-5.48780487804878,-6,0.365853658536585,-118,0.51304347826087,79,0.343478260869565,142,-0.692682926829268,
15681008,23359.375,5936,-3.63948497854077,-14128,-8.66217044757817,-5520,3.38442673206622,58,0.426829268292683,-7,-3.53658536585366,-8,0.487804878048781,-119,0.517391304347826,77,0.334782608695652,141,-0.68780487804878,
15681648,23378.90625,5968,-3.6591048436542,-14176,-8.69160024524831,-5456,3.34518700183936,21,1.03658536585366,-17,-1.28048780487805,-13,0.792682926829268,-117,0.508695652173913,73,0.317391304347826,142,-0.692682926829268,
15682288,23398.4375,6016,-3.68853464132434,-14096,-8.64255058246474,-5376,3.29613733905579,21,1.03658536585366,-17,-1.28048780487805,-13,0.792682926829268,-118,0.51304347826087,74,0.321739130434783,143,-0.697560975609756,
15682928,23417.96875,6000,-3.67872470876763,-14064,-8.62293071735132,-5280,3.23727774371551,41,0.975609756097561,-16,-2.5,-11,0.670731707317073,-119,0.517391304347826,76,0.330434782608696,142,-0.692682926829268,
15683568,23437.5,5936,-3.63948497854077,-14064,-8.62293071735132,-5392,3.30594727161251,41,0.975609756097561,-16,-2.5,-11,0.670731707317073,-118,0.51304347826087,76,0.330434782608696,141,-0.68780487804878,
15684208,23457.03125,6016,-3.68853464132434,-14048,-8.6131207847946,-5280,3.23727774371551,46,0.731707317073171,-12,-2.80487804878049,-15,0.914634146341463,-119,0.517391304347826,81,0.352173913043478,140,-0.682926829268293,
15684848,23476.5625,6032,-3.69834457388105,-14176,-8.69160024524831,-5248,3.21765787860208,69,0.731707317073171,-12,-4.20731707317073,-17,1.03658536585366,-117,0.508695652173913,76,0.330434782608696,141,-0.68780487804878,
15685488,23496.09375,6048,-3.70815450643777,-14176,-8.69160024524831,-5296,3.24708767627223,69,0.731707317073171,-12,-4.20731707317073,-17,1.03658536585366,-117,0.508695652173913,77,0.334782608695652,140,-0.682926829268293,
15686128,23515.625,6064,-3.71796443899448,-14256,-8.74064990803188,-5296,3.24708767627223,63,1.15853658536585,-19,-3.84146341463415,-20,1.21951219512195,-116,0.504347826086957,76,0.330434782608696,140,-0.682926829268293,
15686768,23535.15625,6016,-3.68853464132434,-14192,-8.70141017780503,-5360,3.28632740649908,63,1.15853658536585,-19,-3.84146341463415,-20,1.21951219512195,-118,0.51304347826087,75,0.326086956521739,141,-0.68780487804878,
15687408,23554.6875,5920,-3.62967504598406,-14256,-8.74064990803188,-5344,3.27651747394237,44,2.13414634146341,-35,-2.68292682926829,-22,1.34146341463415,-118,0.51304347826087,76,0.330434782608696,139,-0.678048780487805,
15688048,23574.21875,5984,-3.66891477621091,-14256,-8.74064990803188,-5344,3.27651747394237,4,2.5609756097561,-42,-0.24390243902439,-30,1.82926829268293,-117,0.508695652173913,75,0.326086956521739,141,-0.68780487804878,
15688688,23593.75,5920,-3.62967504598406,-14256,-8.74064990803188,-5360,3.28632740649908,4,2.5609756097561,-42,-0.24390243902439,-30,1.82926829268293,-119,0.517391304347826,75,0.326086956521739,140,-0.682926829268293,
15689328,23613.28125,5968,-3.6591048436542,-14336,-8.78969957081545,-5216,3.19803801348866,-16,2.86585365853659,-47,0.975609756097561,-31,1.89024390243902,-117,0.508695652173913,75,0.326086956521739,141,-0.68780487804878,
15689968,23632.8125,5968,-3.6591048436542,-14304,-8.77007970570202,-5200,3.18822808093194,13,2.74390243902439,-45,-0.792682926829268,-33,2.01219512195122,-118,0.51304347826087,75,0.326086956521739,142,-0.692682926829268,
15690608,23652.34375,6048,-3.70815450643777,-14288,-8.76026977314531,-5216,3.19803801348866,13,2.74390243902439,-45,-0.792682926829268,-33,2.01219512195122,-117,0.508695652173913,73,0.317391304347826,140,-0.682926829268293,
15691248,23671.875,6016,-3.68853464132434,-14320,-8.77988963825874,-5280,3.23727774371551,52,2.31707317073171,-38,-3.17073170731707,-34,2.07317073170732,-119,0.517391304347826,75,0.326086956521739,141,-0.68780487804878,
15691888,23691.40625,5968,-3.6591048436542,-14240,-8.73083997547517,-5328,3.26670754138565,52,2.31707317073171,-38,-3.17073170731707,-34,2.07317073170732,-118,0.51304347826087,79,0.343478260869565,141,-0.68780487804878,
15692528,23710.9375,5904,-3.61986511342735,-14304,-8.77007970570202,-5328,3.26670754138565,57,2.13414634146341,-35,-3.47560975609756,-35,2.13414634146341,-118,0.51304347826087,79,0.343478260869565,140,-0.682926829268293,
15693168,23730.46875,5952,-3.64929491109749,-14336,-8.78969957081545,-5344,3.27651747394237,62,1.76829268292683,-29,-3.78048780487805,-31,1.89024390243902,-120,0.521739130434783,72,0.31304347826087,142,-0.692682926829268,
15693808,23750,5968,-3.6591048436542,-14256,-8.74064990803188,-5456,3.34518700183936,62,1.76829268292683,-29,-3.78048780487805,-31,1.89024390243902,-118,0.51304347826087,81,0.352173913043478,139,-0.678048780487805,
15694448,23769.53125,5920,-3.62967504598406,-14272,-8.7504598405886,-5440,3.33537706928265,84,2.4390243902439,-40,-5.1219512195122,-23,1.40243902439024,-118,0.51304347826087,78,0.339130434782609,141,-0.68780487804878,
15695088,23789.0625,5920,-3.62967504598406,-14176,-8.69160024524831,-5488,3.36480686695279,84,2.4390243902439,-40,-5.1219512195122,-23,1.40243902439024,-118,0.51304347826087,77,0.334782608695652,140,-0.682926829268293,
15695728,23808.59375,5872,-3.60024524831392,-14160,-8.6817903126916,-5408,3.31575720416922,68,2.98780487804878,-49,-4.14634146341463,-21,1.28048780487805,-118,0.51304347826087,79,0.343478260869565,141,-0.68780487804878,
15696368,23828.125,5920,-3.62967504598406,-14096,-8.64255058246474,-5488,3.36480686695279,56,3.41463414634146,-56,-3.41463414634146,-15,0.914634146341463,-117,0.508695652173913,78,0.339130434782609,140,-0.682926829268293,
15697008,23847.65625,5936,-3.63948497854077,-14192,-8.70141017780503,-5456,3.34518700183936,56,3.41463414634146,-56,-3.41463414634146,-15,0.914634146341463,-117,0.508695652173913,77,0.334782608695652,140,-0.682926829268293,
15697648,23867.1875,5984,-3.66891477621091,-14192,-8.70141017780503,-5392,3.30594727161251,52,4.14634146341463,-68,-3.17073170731707,-5,0.304878048780488,-118,0.51304347826087,81,0.352173913043478,139,-0.678048780487805,
15698288,23886.71875,5936,-3.63948497854077,-14224,-8.72103004291846,-5376,3.29613733905579,42,4.63414634146342,-76,-2.5609756097561,-2,0.121951219512195,-119,0.517391304347826,76,0.330434782608696,142,-0.692682926829268,
15698928,23906.25,5920,-3.62967504598406,-14224,-8.72103004291846,-5376,3.29613733905579,42,4.63414634146342,-76,-2.5609756097561,-2,0.121951219512195,-117,0.508695652173913,76,0.330434782608696,141,-0.68780487804878,
15699568,23925.78125,5968,-3.6591048436542,-14208,-8.71122011036174,-5472,3.35499693439608,10,5.36585365853659,-88,-0.609756097560976,-5,0.304878048780488,-118,0.51304347826087,76,0.330434782608696,141,-0.68780487804878,
15700208,23945.3125,6064,-3.71796443899448,-14208,-8.71122011036174,-5424,3.32556713672594,10,5.36585365853659,-88,-0.609756097560976,-5,0.304878048780488,-119,0.517391304347826,74,0.321739130434783,142,-0.692682926829268,
15700848,23964.84375,6016,-3.68853464132434,-14176,-8.69160024524831,-5344,3.27651747394237,-7,5.97560975609756,-98,0.426829268292683,-7,0.426829268292683,-118,0.51304347826087,75,0.326086956521739,142,-0.692682926829268,
15701488,23984.375,6032,-3.69834457388105,-14080,-8.63274064990803,-5328,3.26670754138565,-6,5.67073170731707,-93,0.365853658536585,-10,0.609756097560976,-117,0.508695652173913,74,0.321739130434783,141,-0.68780487804878,
15702128,24003.90625,5968,-3.6591048436542,-14032,-8.60331085223789,-5264,3.2274678111588,-6,5.67073170731707,-93,0.365853658536585,-10,0.609756097560976,-117,0.508695652173913,77,0.334782608695652,139,-0.678048780487805,
15702768,24023.4375,5952,-3.64929491109749,-13968,-8.56407112201104,-5312,3.25689760882894,-4,5.48780487804878,-90,0.24390243902439,-7,0.426829268292683,-118,0.51304347826087,78,0.339130434782609,142,-0.692682926829268,
15703408,24042.96875,5984,-3.66891477621091,-14016,-8.59350091968118,-5280,3.23727774371551,-4,5.48780487804878,-90,0.24390243902439,-7,0.426829268292683,-118,0.51304347826087,77,0.334782608695652,142,-0.692682926829268,
15704048,24062.5,6032,-3.69834457388105,-13936,-8.54445125689761,-5264,3.2274678111588,-6,4.75609756097561,-78,0.365853658536585,3,-0.182926829268293,-117,0.508695652173913,76,0.330434782608696,140,-0.682926829268293,
15704688,24082.03125,6032,-3.69834457388105,-14000,-8.58369098712446,-5264,3.2274678111588,-12,3.96341463414634,-65,0.731707317073171,8,-0.487804878048781,-118,0.51304347826087,74,0.321739130434783,142,-0.692682926829268,
15705328,24101.5625,6064,-3.71796443899448,-14016,-8.59350091968118,-5232,3.20784794604537,-12,3.96341463414634,-65,0.731707317073171,8,-0.487804878048781,-118,0.51304347826087,78,0.339130434782609,141,-0.68780487804878,
15705968,24121.09375,6064,-3.71796443899448,-14016,-8.59350091968118,-5216,3.19803801348866,-5,2.74390243902439,-45,0.304878048780488,1,-0.0609756097560976,-118,0.51304347826087,79,0.343478260869565,141,-0.68780487804878,
15706608,24140.625,6128,-3.75720416922134,-14032,-8.60331085223789,-5280,3.23727774371551,-5,2.74390243902439,-45,0.304878048780488,1,-0.0609756097560976,-116,0.504347826086957,74,0.321739130434783,143,-0.697560975609756,
15707248,24160.15625,6064,-3.71796443899448,-14048,-8.6131207847946,-5296,3.24708767627223,8,1.15853658536585,-19,-0.487804878048781,-5,0.304878048780488,-117,0.508695652173913,76,0.330434782608696,141,-0.68780487804878,
15707888,24179.6875,6064,-3.71796443899448,-14080,-8.63274064990803,-5296,3.24708767627223,29,0,0,-1.76829268292683,-4,0.24390243902439,-117,0.508695652173913,78,0.339130434782609,141,-0.68780487804878,
15708528,24199.21875,6128,-3.75720416922134,-14112,-8.65236051502146,-5328,3.26670754138565,29,0,0,-1.76829268292683,-4,0.24390243902439,-121,0.526086956521739,77,0.334782608695652,140,-0.682926829268293,
15709168,24218.75,6064,-3.71796443899448,-14080,-8.63274064990803,-5296,3.24708767627223,42,-0.792682926829268,13,-2.5609756097561,4,-0.24390243902439,-120,0.521739130434783,74,0.321739130434783,143,-0.697560975609756,
15709808,24238.28125,5920,-3.62967504598406,-14032,-8.60331085223789,-5312,3.25689760882894,40,-0.853658536585366,14,-2.4390243902439,6,-0.365853658536585,-118,0.51304347826087,74,0.321739130434783,141,-0.68780487804878,
15710448,24257.8125,5968,-3.6591048436542,-14016,-8.59350091968118,-5408,3.31575720416922,40,-0.853658536585366,14,-2.4390243902439,6,-0.365853658536585,-118,0.51304347826087,80,0.347826086956522,140,-0.682926829268293,
15711088,24277.34375,5904,-3.61986511342735,-14096,-8.64255058246474,-5488,3.36480686695279,27,-0.548780487804878,9,-1.64634146341463,3,-0.182926829268293,-117,0.508695652173913,75,0.326086956521739,141,-0.68780487804878,
15711728,24296.875,5872,-3.60024524831392,-14080,-8.63274064990803,-5424,3.32556713672594,27,-0.548780487804878,9,-1.64634146341463,3,-0.182926829268293,-120,0.521739130434783,78,0.339130434782609,139,-0.678048780487805,
15712368,24316.40625,5920,-3.62967504598406,-14128,-8.66217044757817,-5440,3.33537706928265,21,-0.792682926829268,13,-1.28048780487805,8,-0.487804878048781,-117,0.508695652173913,78,0.339130434782609,141,-0.68780487804878,
15713008,24335.9375,6000,-3.67872470876763,-14144,-8.67198038013489,-5408,3.31575720416922,31,-0.975609756097561,16,-1.89024390243902,14,-0.853658536585366,-117,0.508695652173913,77,0.334782608695652,139,-0.678048780487805,
15713648,24355.46875,6048,-3.70815450643777,-14224,-8.72103004291846,-5440,3.33537706928265,31,-0.975609756097561,16,-1.89024390243902,14,-0.853658536585366,-118,0.51304347826087,76,0.330434782608696,141,-0.68780487804878,
15714288,24375,6064,-3.71796443899448,-14208,-8.71122011036174,-5472,3.35499693439608,45,-1.34146341463415,22,-2.74390243902439,14,-0.853658536585366,-118,0.51304347826087,79,0.343478260869565,141,-0.68780487804878,
15714928,24394.53125,6048,-3.70815450643777,-14256,-8.74064990803188,-5536,3.39423666462293,45,-1.34146341463415,22,-2.74390243902439,14,-0.853658536585366,-118,0.51304347826087,81,0.352173913043478,140,-0.682926829268293,
15715568,24414.0625,6016,-3.68853464132434,-14288,-8.76026977314531,-5504,3.3746167995095,55,-0.914634146341463,15,-3.35365853658537,2,-0.121951219512195,-117,0.508695652173913,75,0.326086956521739,140,-0.682926829268293,
15716208,24433.59375,5872,-3.60024524831392,-14208,-8.71122011036174,-5552,3.40404659717964,43,0.487804878048781,-8,-2.6219512195122,-13,0.792682926829268,-117,0.508695652173913,75,0.326086956521739,141,-0.68780487804878,
15716848,24453.125,5856,-3.5904353157572,-14176,-8.69160024524831,-5552,3.40404659717964,43,0.487804878048781,-8,-2.6219512195122,-13,0.792682926829268,-118,0.51304347826087,77,0.334782608695652,140,-0.682926829268293,
15717488,24472.65625,5824,-3.57081545064378,-14080,-8.63274064990803,-5584,3.42366646229307,17,1.89024390243902,-31,-1.03658536585366,-20,1.21951219512195,-117,0.508695652173913,77,0.334782608695652,139,-0.678048780487805,
15718128,24492.1875,5888,-3.61005518087063,-14128,-8.66217044757817,-5536,3.39423666462293,3,3.04878048780488,-50,-0.182926829268293,-13,0.792682926829268,-115,0.5,75,0.326086956521739,141,-0.68780487804878,
15718768,24511.71875,6000,-3.67872470876763,-14208,-8.71122011036174,-5392,3.30594727161251,3,3.04878048780488,-50,-0.182926829268293,-13,0.792682926829268,-115,0.5,75,0.326086956521739,141,-0.68780487804878,
15719408,24531.25,5984,-3.66891477621091,-14320,-8.77988963825874,-5424,3.32556713672594,16,3.29268292682927,-54,-0.975609756097561,-4,0.24390243902439,-118,0.51304347826087,81,0.352173913043478,138,-0.673170731707317,
15720048,24550.78125,5984,-3.66891477621091,-14320,-8.77988963825874,-5408,3.31575720416922,16,3.29268292682927,-54,-0.975609756097561,-4,0.24390243902439,-118,0.51304347826087,78,0.339130434782609,140,-0.682926829268293,
15720688,24570.3125,5952,-3.64929491109749,-14320,-8.77988963825874,-5264,3.2274678111588,29,3.04878048780488,-50,-1.76829268292683,-8,0.487804878048781,-119,0.517391304347826,75,0.326086956521739,142,-0.692682926829268,
15721328,24589.84375,5968,-3.6591048436542,-14320,-8.77988963825874,-5232,3.20784794604537,43,3.10975609756098,-51,-2.6219512195122,-26,1.58536585365854,-118,0.51304347826087,77,0.334782608695652,139,-0.678048780487805,
15721968,24609.375,5872,-3.60024524831392,-14224,-8.72103004291846,-5296,3.24708767627223,43,3.10975609756098,-51,-2.6219512195122,-26,1.58536585365854,-116,0.504347826086957,76,0.330434782608696,139,-0.678048780487805,
15722608,24628.90625,5856,-3.5904353157572,-14208,-8.71122011036174,-5360,3.28632740649908,48,3.47560975609756,-57,-2.92682926829268,-37,2.25609756097561,-115,0.5,75,0.326086956521739,139,-0.678048780487805,
15723248,24648.4375,5728,-3.51195585530349,-14112,-8.65236051502146,-5312,3.25689760882894,48,3.47560975609756,-57,-2.92682926829268,-37,2.25609756097561,-117,0.508695652173913,74,0.321739130434783,141,-0.68780487804878,
15723888,24667.96875,5648,-3.46290619251993,-14048,-8.6131207847946,-5360,3.28632740649908,26,4.39024390243902,-72,-1.58536585365854,-31,1.89024390243902,-119,0.517391304347826,80,0.347826086956522,141,-0.68780487804878,
15724528,24687.5,5664,-3.47271612507664,-14000,-8.58369098712446,-5264,3.2274678111588,5,4.69512195121951,-77,-0.304878048780488,-12,0.731707317073171,-118,0.51304347826087,77,0.334782608695652,139,-0.678048780487805,
15725168,24707.03125,5680,-3.48252605763335,-14080,-8.63274064990803,-5168,3.16860821581852,5,4.69512195121951,-77,-0.304878048780488,-12,0.731707317073171,-118,0.51304347826087,76,0.330434782608696,140,-0.682926829268293,
15725808,24726.5625,5840,-3.58062538320049,-14160,-8.6817903126916,-5072,3.10974862047823,-11,4.26829268292683,-70,0.670731707317073,2,-0.121951219512195,-118,0.51304347826087,80,0.347826086956522,139,-0.678048780487805,
15726448,24746.09375,5856,-3.5904353157572,-14304,-8.77007970570202,-5104,3.12936848559166,1,3.04878048780488,-50,-0.0609756097560976,3,-0.182926829268293,-117,0.508695652173913,79,0.343478260869565,141,-0.68780487804878,
15727088,24765.625,5968,-3.6591048436542,-14224,-8.72103004291846,-5040,3.09012875536481,1,3.04878048780488,-50,-0.0609756097560976,3,-0.182926829268293,-116,0.504347826086957,75,0.326086956521739,142,-0.692682926829268,
15727728,24785.15625,6016,-3.68853464132434,-14256,-8.74064990803188,-5136,3.14898835070509,17,1.82926829268293,-30,-1.03658536585366,-5,0.304878048780488,-118,0.51304347826087,82,0.356521739130435,139,-0.678048780487805,
15728368,24804.6875,6016,-3.68853464132434,-14304,-8.77007970570202,-5152,3.1587982832618,17,1.82926829268293,-30,-1.03658536585366,-5,0.304878048780488,-117,0.508695652173913,75,0.326086956521739,139,-0.678048780487805,
15729008,24824.21875,5952,-3.64929491109749,-14224,-8.72103004291846,-5120,3.13917841814837,27,1.89024390243902,-31,-1.64634146341463,-16,0.975609756097561,-117,0.508695652173913,77,0.334782608695652,139,-0.678048780487805,
15729648,24843.75,5792,-3.55119558553035,-14176,-8.69160024524831,-5152,3.1587982832618,-5,2.25609756097561,-37,0.304878048780488,-29,1.76829268292683,-116,0.504347826086957,75,0.326086956521739,141,-0.68780487804878,
15730288,24863.28125,5792,-3.55119558553035,-14128,-8.66217044757817,-5152,3.1587982832618,-5,2.25609756097561,-37,0.304878048780488,-29,1.76829268292683,-118,0.51304347826087,75,0.326086956521739,141,-0.68780487804878,
15730928,24882.8125,5792,-3.55119558553035,-14160,-8.6817903126916,-5200,3.18822808093194,-39,2.31707317073171,-38,2.37804878048781,-16,0.975609756097561,-117,0.508695652173913,77,0.334782608695652,139,-0.678048780487805,
15731568,24902.34375,5856,-3.5904353157572,-14128,-8.66217044757817,-5168,3.16860821581852,-39,2.31707317073171,-38,2.37804878048781,-16,0.975609756097561,-117,0.508695652173913,76,0.330434782608696,140,-0.682926829268293,
15732208,24921.875,5920,-3.62967504598406,-14112,-8.65236051502146,-5232,3.20784794604537,-42,1.70731707317073,-28,2.5609756097561,4,-0.24390243902439,-118,0.51304347826087,76,0.330434782608696,141,-0.68780487804878,
15732848,24941.40625,6112,-3.74739423666462,-14144,-8.67198038013489,-5360,3.28632740649908,0,1.34146341463415,-22,0,11,-0.670731707317073,-116,0.504347826086957,77,0.334782608695652,139,-0.678048780487805,
15733488,24960.9375,6048,-3.70815450643777,-14304,-8.77007970570202,-5296,3.24708767627223,0,1.34146341463415,-22,0,11,-0.670731707317073,-116,0.504347826086957,75,0.326086956521739,139,-0.678048780487805,
15734128,24980.46875,6000,-3.67872470876763,-14320,-8.77988963825874,-5312,3.25689760882894,4,1.95121951219512,-32,-0.24390243902439,-3,0.182926829268293,-117,0.508695652173913,78,0.339130434782609,140,-0.682926829268293,
15734768,25000,5952,-3.64929491109749,-14368,-8.80931943592888,-5328,3.26670754138565,4,1.95121951219512,-32,-0.24390243902439,-3,0.182926829268293,-117,0.508695652173913,78,0.339130434782609,140,-0.682926829268293,
15735408,25019.53125,5792,-3.55119558553035,-14352,-8.79950950337216,-5296,3.24708767627223,-24,3.71951219512195,-61,1.46341463414634,-31,1.89024390243902,-116,0.504347826086957,74,0.321739130434783,140,-0.682926829268293,
15736048,25039.0625,5856,-3.5904353157572,-14320,-8.77988963825874,-5232,3.20784794604537,-91,4.9390243902439,-81,5.54878048780488,-43,2.6219512195122,-116,0.504347826086957,74,0.321739130434783,141,-0.68780487804878,
15736688,25058.59375,5984,-3.66891477621091,-14256,-8.74064990803188,-5312,3.25689760882894,-91,4.9390243902439,-81,5.54878048780488,-43,2.6219512195122,-118,0.51304347826087,79,0.343478260869565,140,-0.682926829268293,
15737328,25078.125,6064,-3.71796443899448,-14208,-8.71122011036174,-5248,3.21765787860208,-95,5.1219512195122,-84,5.79268292682927,-24,1.46341463414634,-119,0.517391304347826,79,0.343478260869565,140,-0.682926829268293,
15737968,25097.65625,6016,-3.68853464132434,-14208,-8.71122011036174,-5216,3.19803801348866,-52,3.71951219512195,-61,3.17073170731707,-5,0.304878048780488,-118,0.51304347826087,75,0.326086956521739,141,-0.68780487804878,
15738608,25117.1875,6000,-3.67872470876763,-14224,-8.72103004291846,-5232,3.20784794604537,-52,3.71951219512195,-61,3.17073170731707,-5,0.304878048780488,-116,0.504347826086957,73,0.317391304347826,141,-0.68780487804878,
15739248,25136.71875,6000,-3.67872470876763,-14256,-8.74064990803188,-5264,3.2274678111588,-33,2.98780487804878,-49,2.01219512195122,4,-0.24390243902439,-119,0.517391304347826,75,0.326086956521739,139,-0.678048780487805,
15739888,25156.25,5984,-3.66891477621091,-14256,-8.74064990803188,-5312,3.25689760882894,-33,2.98780487804878,-49,2.01219512195122,4,-0.24390243902439,-117,0.508695652173913,78,0.339130434782609,139,-0.678048780487805,
15740528,25175.78125,5968,-3.6591048436542,-14288,-8.76026977314531,-5280,3.23727774371551,-36,3.10975609756098,-51,2.19512195121951,7,-0.426829268292683,-117,0.508695652173913,74,0.321739130434783,141,-0.68780487804878,
15741168,25195.3125,5984,-3.66891477621091,-14304,-8.77007970570202,-5312,3.25689760882894,-26,3.04878048780488,-50,1.58536585365854,6,-0.365853658536585,-118,0.51304347826087,74,0.321739130434783,140,-0.682926829268293,
15741808,25214.84375,5888,-3.61005518087063,-14320,-8.77988963825874,-5456,3.34518700183936,-26,3.04878048780488,-50,1.58536585365854,6,-0.365853658536585,-116,0.504347826086957,77,0.334782608695652,139,-0.678048780487805,
15742448,25234.375,6016,-3.68853464132434,-14224,-8.72103004291846,-5536,3.39423666462293,-25,2.74390243902439,-45,1.52439024390244,17,-1.03658536585366,-116,0.504347826086957,78,0.339130434782609,140,-0.682926829268293,
15743088,25253.90625,5984,-3.66891477621091,-14128,-8.66217044757817,-5440,3.33537706928265,-25,2.74390243902439,-45,1.52439024390244,17,-1.03658536585366,-119,0.517391304347826,75,0.326086956521739,140,-0.682926829268293,
15743728,25273.4375,5904,-3.61986511342735,-14080,-8.63274064990803,-5216,3.19803801348866,-6,3.04878048780488,-50,0.365853658536585,23,-1.40243902439024,-118,0.51304347826087,77,0.334782608695652,137,-0.668292682926829,
15744368,25292.96875,5920,-3.62967504598406,-14096,-8.64255058246474,-5312,3.25689760882894,-7,3.47560975609756,-57,0.426829268292683,21,-1.28048780487805,-116,0.504347826086957,76,0.330434782608696,139,-0.678048780487805,
15745008,25312.5,5904,-3.61986511342735,-14176,-8.69160024524831,-5232,3.20784794604537,-7,3.47560975609756,-57,0.426829268292683,21,-1.28048780487805,-117,0.508695652173913,75,0.326086956521739,139,-0.678048780487805,
15745648,25332.03125,5840,-3.58062538320049,-14112,-8.65236051502146,-5344,3.27651747394237,-45,3.90243902439024,-64,2.74390243902439,12,-0.731707317073171,-118,0.51304347826087,75,0.326086956521739,140,-0.682926829268293,
15746288,25351.5625,6016,-3.68853464132434,-14144,-8.67198038013489,-5312,3.25689760882894,-38,3.29268292682927,-54,2.31707317073171,25,-1.52439024390244,-117,0.508695652173913,79,0.343478260869565,140,-0.682926829268293,
15746928,25371.09375,6160,-3.77682403433476,-14176,-8.69160024524831,-5280,3.23727774371551,-38,3.29268292682927,-54,2.31707317073171,25,-1.52439024390244,-118,0.51304347826087,74,0.321739130434783,139,-0.678048780487805,
15747568,25390.625,6208,-3.8062538320049,-14192,-8.70141017780503,-5232,3.20784794604537,3,1.89024390243902,-31,-0.182926829268293,34,-2.07317073170732,-116,0.504347826086957,80,0.347826086956522,138,-0.673170731707317,
15748208,25410.15625,6144,-3.76701410177805,-14224,-8.72103004291846,-5232,3.20784794604537,3,1.89024390243902,-31,-0.182926829268293,34,-2.07317073170732,-118,0.51304347826087,78,0.339130434782609,140,-0.682926829268293,
15748848,25429.6875,6224,-3.81606376456162,-14320,-8.77988963825874,-5248,3.21765787860208,32,1.21951219512195,-20,-1.95121951219512,25,-1.52439024390244,-118,0.51304347826087,78,0.339130434782609,141,-0.68780487804878,
15749488,25449.21875,6080,-3.7277743715512,-14240,-8.73083997547517,-5328,3.26670754138565,44,1.40243902439024,-23,-2.68292682926829,14,-0.853658536585366,-117,0.508695652173913,75,0.326086956521739,141,-0.68780487804878,
15750128,25468.75,5968,-3.6591048436542,-14192,-8.70141017780503,-5200,3.18822808093194,44,1.40243902439024,-23,-2.68292682926829,14,-0.853658536585366,-117,0.508695652173913,80,0.347826086956522,141,-0.68780487804878,
15750768,25488.28125,5904,-3.61986511342735,-14160,-8.6817903126916,-5328,3.26670754138565,10,1.89024390243902,-31,-0.609756097560976,4,-0.24390243902439,-116,0.504347826086957,78,0.339130434782609,139,-0.678048780487805,
15751408,25507.8125,6032,-3.69834457388105,-14112,-8.65236051502146,-5360,3.28632740649908,10,1.89024390243902,-31,-0.609756097560976,4,-0.24390243902439,-117,0.508695652173913,77,0.334782608695652,138,-0.673170731707317,
15752048,25527.34375,6032,-3.69834457388105,-14080,-8.63274064990803,-5408,3.31575720416922,15,1.95121951219512,-32,-0.914634146341463,4,-0.24390243902439,-116,0.504347826086957,77,0.334782608695652,140,-0.682926829268293,
15752688,25546.875,6080,-3.7277743715512,-14064,-8.62293071735132,-5328,3.26670754138565,43,2.25609756097561,-37,-2.6219512195122,11,-0.670731707317073,-116,0.504347826086957,78,0.339130434782609,139,-0.678048780487805,
15753328,25566.40625,5968,-3.6591048436542,-14080,-8.63274064990803,-5280,3.23727774371551,43,2.25609756097561,-37,-2.6219512195122,11,-0.670731707317073,-116,0.504347826086957,79,0.343478260869565,139,-0.678048780487805,
15753968,25585.9375,5952,-3.64929491109749,-14208,-8.71122011036174,-5360,3.28632740649908,37,2.86585365853659,-47,-2.25609756097561,4,-0.24390243902439,-118,0.51304347826087,78,0.339130434782609,138,-0.673170731707317,
15754608,25605.46875,5856,-3.5904353157572,-14304,-8.77007970570202,-5216,3.19803801348866,-14,4.14634146341463,-68,0.853658536585366,-17,1.03658536585366,-119,0.517391304347826,76,0.330434782608696,139,-0.678048780487805,
15755248,25625,5888,-3.61005518087063,-14224,-8.72103004291846,-5152,3.1587982832618,-14,4.14634146341463,-68,0.853658536585366,-17,1.03658536585366,-118,0.51304347826087,78,0.339130434782609,140,-0.682926829268293,
15755888,25644.53125,6000,-3.67872470876763,-14096,-8.64255058246474,-5136,3.14898835070509,-28,4.51219512195122,-74,1.70731707317073,-34,2.07317073170732,-115,0.5,75,0.326086956521739,138,-0.673170731707317,
15756528,25664.0625,6016,-3.68853464132434,-14080,-8.63274064990803,-5056,3.09993868792152,-28,4.51219512195122,-74,1.70731707317073,-34,2.07317073170732,-116,0.504347826086957,75,0.326086956521739,139,-0.678048780487805,
15757168,25683.59375,5984,-3.66891477621091,-14144,-8.67198038013489,-5024,3.08031882280809,-22,3.96341463414634,-65,1.34146341463415,-46,2.80487804878049,-116,0.504347826086957,78,0.339130434782609,139,-0.678048780487805,
15757808,25703.125,6000,-3.67872470876763,-14240,-8.73083997547517,-5088,3.11955855303495,-24,2.31707317073171,-38,1.46341463414634,-48,2.92682926829268,-118,0.51304347826087,79,0.343478260869565,140,-0.682926829268293,
15758448,25722.65625,6080,-3.7277743715512,-14336,-8.78969957081545,-5136,3.14898835070509,-24,2.31707317073171,-38,1.46341463414634,-48,2.92682926829268,-116,0.504347826086957,74,0.321739130434783,139,-0.678048780487805,
15759088,25742.1875,5984,-3.66891477621091,-14384,-8.81912936848559,-5168,3.16860821581852,23,0.975609756097561,-16,-1.40243902439024,-41,2.5,-116,0.504347826086957,74,0.321739130434783,140,-0.682926829268293,
15759728,25761.71875,5936,-3.63948497854077,-14336,-8.78969957081545,-5120,3.13917841814837,23,0.975609756097561,-16,-1.40243902439024,-41,2.5,-118,0.51304347826087,78,0.339130434782609,140,-0.682926829268293,
15760368,25781.25,5824,-3.57081545064378,-14128,-8.66217044757817,-5184,3.17841814837523,50,0.548780487804878,-9,-3.04878048780488,-43,2.6219512195122,-118,0.51304347826087,76,0.330434782608696,139,-0.678048780487805,
15761008,25800.78125,5712,-3.50214592274678,-14096,-8.64255058246474,-5312,3.25689760882894,32,1.21951219512195,-20,-1.95121951219512,-43,2.6219512195122,-118,0.51304347826087,82,0.356521739130435,138,-0.673170731707317,
15761648,25820.3125,5696,-3.49233599019007,-14128,-8.66217044757817,-5456,3.34518700183936,32,1.21951219512195,-20,-1.95121951219512,-43,2.6219512195122,-117,0.508695652173913,76,0.330434782608696,139,-0.678048780487805,
15762288,25839.84375,5728,-3.51195585530349,-14176,-8.69160024524831,-5376,3.29613733905579,9,2.31707317073171,-38,-0.548780487804878,-32,1.95121951219512,-116,0.504347826086957,78,0.339130434782609,138,-0.673170731707317,
15762928,25859.375,5776,-3.54138565297364,-14240,-8.73083997547517,-5376,3.29613733905579,9,2.31707317073171,-38,-0.548780487804878,-32,1.95121951219512,-119,0.517391304347826,79,0.343478260869565,138,-0.673170731707317,
15763568,25878.90625,5696,-3.49233599019007,-14208,-8.71122011036174,-5280,3.23727774371551,-8,2.86585365853659,-47,0.487804878048781,-18,1.09756097560976,-118,0.51304347826087,76,0.330434782608696,140,-0.682926829268293,
15764208,25898.4375,5904,-3.61986511342735,-14160,-8.6817903126916,-5280,3.23727774371551,-14,2.80487804878049,-46,0.853658536585366,-8,0.487804878048781,-118,0.51304347826087,74,0.321739130434783,140,-0.682926829268293,
15764848,25917.96875,6112,-3.74739423666462,-14256,-8.74064990803188,-5312,3.25689760882894,-14,2.80487804878049,-46,0.853658536585366,-8,0.487804878048781,-118,0.51304347826087,80,0.347826086956522,139,-0.678048780487805,
15765488,25937.5,6080,-3.7277743715512,-14416,-8.83874923359902,-5328,3.26670754138565,42,2.4390243902439,-40,-2.5609756097561,-14,0.853658536585366,-118,0.51304347826087,76,0.330434782608696,140,-0.682926829268293,
15766128,25957.03125,5872,-3.60024524831392,-14432,-8.84855916615573,-5200,3.18822808093194,32,3.23170731707317,-53,-1.95121951219512,-27,1.64634146341463,-118,0.51304347826087,79,0.343478260869565,138,-0.673170731707317,
15766768,25976.5625,5648,-3.46290619251993,-14288,-8.76026977314531,-5104,3.12936848559166,32,3.23170731707317,-53,-1.95121951219512,-27,1.64634146341463,-116,0.504347826086957,76,0.330434782608696,140,-0.682926829268293,
15767408,25996.09375,5744,-3.52176578786021,-14144,-8.67198038013489,-5008,3.07050889025138,-34,2.92682926829268,-48,2.07317073170732,-42,2.5609756097561,-117,0.508695652173913,78,0.339130434782609,138,-0.673170731707317,
15768048,26015.625,5904,-3.61986511342735,-14128,-8.66217044757817,-5216,3.19803801348866,-34,2.92682926829268,-48,2.07317073170732,-42,2.5609756097561,-117,0.508695652173913,79,0.343478260869565,140,-0.682926829268293,
15768688,26035.15625,5888,-3.61005518087063,-14096,-8.64255058246474,-5184,3.17841814837523,7,2.19512195121951,-36,-0.426829268292683,-11,0.670731707317073,-117,0.508695652173913,80,0.347826086956522,140,-0.682926829268293,
15769328,26054.6875,5888,-3.61005518087063,-14096,-8.64255058246474,-5088,3.11955855303495,48,2.5,-41,-2.92682926829268,19,-1.15853658536585,-117,0.508695652173913,74,0.321739130434783,139,-0.678048780487805,
15769968,26074.21875,5664,-3.47271612507664,-14176,-8.69160024524831,-5056,3.09993868792152,48,2.5,-41,-2.92682926829268,19,-1.15853658536585,-121,0.526086956521739,78,0.339130434782609,139,-0.678048780487805,
15770608,26093.75,5632,-3.45309625996321,-14288,-8.76026977314531,-4960,3.04107909258124,-9,2.92682926829268,-48,0.548780487804878,5,-0.304878048780488,-118,0.51304347826087,77,0.334782608695652,140,-0.682926829268293,
15771248,26113.28125,5856,-3.5904353157572,-14208,-8.71122011036174,-4960,3.04107909258124,-9,2.92682926829268,-48,0.548780487804878,5,-0.304878048780488,-118,0.51304347826087,78,0.339130434782609,140,-0.682926829268293,
15771888,26132.8125,5984,-3.66891477621091,-14288,-8.76026977314531,-4976,3.05088902513795,-56,3.04878048780488,-50,3.41463414634146,-9,0.548780487804878,-116,0.504347826086957,75,0.326086956521739,140,-0.682926829268293,
15772528,26152.34375,6000,-3.67872470876763,-14256,-8.74064990803188,-4944,3.03126916002452,-37,2.5609756097561,-42,2.25609756097561,-8,0.487804878048781,-116,0.504347826086957,76,0.330434782608696,139,-0.678048780487805,
15773168,26171.875,5888,-3.61005518087063,-14240,-8.73083997547517,-4768,2.92335990190067,-37,2.5609756097561,-42,2.25609756097561,-8,0.487804878048781,-119,0.517391304347826,79,0.343478260869565,138,-0.673170731707317,
15773808,26191.40625,5856,-3.5904353157572,-14208,-8.71122011036174,-4736,2.90374003678725,-39,1.58536585365854,-26,2.37804878048781,-11,0.670731707317073,-117,0.508695652173913,77,0.334782608695652,139,-0.678048780487805,
15774448,26210.9375,5840,-3.58062538320049,-14208,-8.71122011036174,-4832,2.96259963212753,-57,0.365853658536585,-6,3.47560975609756,-4,0.24390243902439,-117,0.508695652173913,77,0.334782608695652,138,-0.673170731707317,
15775088,26230.46875,5952,-3.64929491109749,-14224,-8.72103004291846,-4880,2.99202942979767,-57,0.365853658536585,-6,3.47560975609756,-4,0.24390243902439,-118,0.51304347826087,77,0.334782608695652,139,-0.678048780487805,
15775728,26250,6112,-3.74739423666462,-14176,-8.69160024524831,-4928,3.02145922746781,-40,-1.21951219512195,20,2.4390243902439,16,-0.975609756097561,-118,0.51304347826087,77,0.334782608695652,138,-0.673170731707317,
15776368,26269.53125,6112,-3.74739423666462,-14240,-8.73083997547517,-5040,3.09012875536481,-40,-1.21951219512195,20,2.4390243902439,16,-0.975609756097561,-119,0.517391304347826,83,0.360869565217391,137,-0.668292682926829,
15777008,26289.0625,6016,-3.68853464132434,-14368,-8.80931943592888,-4912,3.0116492949111,21,-2.4390243902439,40,-1.28048780487805,18,-1.09756097560976,-118,0.51304347826087,75,0.326086956521739,139,-0.678048780487805,
15777648,26308.59375,5984,-3.66891477621091,-14320,-8.77988963825874,-5072,3.10974862047823,31,-2.80487804878049,46,-1.89024390243902,6,-0.365853658536585,-118,0.51304347826087,77,0.334782608695652,137,-0.668292682926829,
15778288,26328.125,5904,-3.61986511342735,-14416,-8.83874923359902,-5040,3.09012875536481,31,-2.80487804878049,46,-1.89024390243902,6,-0.365853658536585,-119,0.517391304347826,81,0.352173913043478,136,-0.663414634146342,
15778928,26347.65625,5888,-3.61005518087063,-14368,-8.80931943592888,-5088,3.11955855303495,4,-2.86585365853659,47,-0.24390243902439,3,-0.182926829268293,-116,0.504347826086957,75,0.326086956521739,137,-0.668292682926829,
15779568,26367.1875,5936,-3.63948497854077,-14304,-8.77007970570202,-5104,3.12936848559166,4,-2.86585365853659,47,-0.24390243902439,3,-0.182926829268293,-117,0.508695652173913,79,0.343478260869565,137,-0.668292682926829,
15780208,26386.71875,6000,-3.67872470876763,-14240,-8.73083997547517,-5024,3.08031882280809,17,-2.68292682926829,44,-1.03658536585366,10,-0.609756097560976,-117,0.508695652173913,80,0.347826086956522,138,-0.673170731707317,
15780848,26406.25,6016,-3.68853464132434,-14208,-8.71122011036174,-5040,3.09012875536481,25,-2.37804878048781,39,-1.52439024390244,12,-0.731707317073171,-119,0.517391304347826,84,0.365217391304348,135,-0.658536585365854,
15781488,26425.78125,6016,-3.68853464132434,-14192,-8.70141017780503,-5104,3.12936848559166,25,-2.37804878048781,39,-1.52439024390244,12,-0.731707317073171,-118,0.51304347826087,84,0.365217391304348,135,-0.658536585365854,
15782128,26445.3125,6032,-3.69834457388105,-14288,-8.76026977314531,-5104,3.12936848559166,13,-1.95121951219512,32,-0.792682926829268,16,-0.975609756097561,-117,0.508695652173913,80,0.347826086956522,137,-0.668292682926829,
15782768,26464.84375,6144,-3.76701410177805,-14272,-8.7504598405886,-5104,3.12936848559166,-4,-1.34146341463415,22,0.24390243902439,14,-0.853658536585366,-118,0.51304347826087,78,0.339130434782609,135,-0.658536585365854,
15783408,26484.375,6192,-3.79644389944819,-14304,-8.77007970570202,-5152,3.1587982832618,-4,-1.34146341463415,22,0.24390243902439,14,-0.853658536585366,-117,0.508695652173913,75,0.326086956521739,137,-0.668292682926829,
15784048,26503.90625,6128,-3.75720416922134,-14368,-8.80931943592888,-5088,3.11955855303495,23,-0.975609756097561,16,-1.40243902439024,7,-0.426829268292683,-118,0.51304347826087,79,0.343478260869565,136,-0.663414634146342,
15784688,26523.4375,6128,-3.75720416922134,-14304,-8.77007970570202,-5040,3.09012875536481,23,-0.975609756097561,16,-1.40243902439024,7,-0.426829268292683,-117,0.508695652173913,79,0.343478260869565,133,-0.648780487804878,
15785328,26542.96875,6112,-3.74739423666462,-14304,-8.77007970570202,-5024,3.08031882280809,53,-0.914634146341463,15,-3.23170731707317,-9,0.548780487804878,-117,0.508695652173913,79,0.343478260869565,134,-0.653658536585366,
15785968,26562.5,6064,-3.71796443899448,-14304,-8.77007970570202,-5024,3.08031882280809,59,-0.853658536585366,14,-3.59756097560976,-17,1.03658536585366,-116,0.504347826086957,82,0.356521739130435,134,-0.653658536585366,
15786608,26582.03125,6080,-3.7277743715512,-14400,-8.8289393010423,-4912,3.0116492949111,59,-0.853658536585366,14,-3.59756097560976,-17,1.03658536585366,-116,0.504347826086957,77,0.334782608695652,135,-0.658536585365854,
15787248,26601.5625,6080,-3.7277743715512,-14320,-8.77988963825874,-5040,3.09012875536481,70,-0.914634146341463,15,-4.26829268292683,-20,1.21951219512195,-118,0.51304347826087,78,0.339130434782609,135,-0.658536585365854,
15787888,26621.09375,6000,-3.67872470876763,-14320,-8.77988963825874,-4992,3.06069895769467,70,-0.914634146341463,15,-4.26829268292683,-20,1.21951219512195,-115,0.5,79,0.343478260869565,135,-0.658536585365854,
15788528,26640.625,5968,-3.6591048436542,-14336,-8.78969957081545,-4960,3.04107909258124,86,-0.548780487804878,9,-5.24390243902439,-20,1.21951219512195,-116,0.504347826086957,76,0.330434782608696,136,-0.663414634146342,
15789168,26660.15625,5952,-3.64929491109749,-14400,-8.8289393010423,-4864,2.98221949724096,101,-0.182926829268293,3,-6.15853658536585,-18,1.09756097560976,-118,0.51304347826087,81,0.352173913043478,134,-0.653658536585366,
15789808,26679.6875,6016,-3.68853464132434,-14432,-8.84855916615573,-4960,3.04107909258124,101,-0.182926829268293,3,-6.15853658536585,-18,1.09756097560976,-114,0.495652173913044,77,0.334782608695652,134,-0.653658536585366,
15790448,26699.21875,6000,-3.67872470876763,-14384,-8.81912936848559,-5312,3.25689760882894,109,0.182926829268293,-3,-6.64634146341464,-21,1.28048780487805,-115,0.5,77,0.334782608695652,135,-0.658536585365854,
15791088,26718.75,6048,-3.70815450643777,-14512,-8.8976088289393,-5872,3.60024524831392,109,0.182926829268293,-3,-6.64634146341464,-21,1.28048780487805,-117,0.508695652173913,78,0.339130434782609,135,-0.658536585365854,
15791728,26738.28125,5968,-3.6591048436542,-14704,-9.01532801961987,-6592,4.04169221336603,44,0.548780487804878,-9,-2.68292682926829,-32,1.95121951219512,-117,0.508695652173913,81,0.352173913043478,135,-0.658536585365854,
15792368,26757.8125,6240,-3.82587369711833,-14720,-9.02513795217658,-7840,4.8068669527897,-111,5.0609756097561,-83,6.76829268292683,-57,3.47560975609756,-115,0.5,76,0.330434782608696,135,-0.658536585365854,
15793008,26777.34375,7088,-4.34580012262416,-14944,-9.16247700797057,-9808,6.01348865726548,-111,5.0609756097561,-83,6.76829268292683,-57,3.47560975609756,-118,0.51304347826087,81,0.352173913043478,135,-0.658536585365854,
15793648,26796.875,8384,-5.14040465971796,-15360,-9.41753525444513,-12560,7.70079705702023,-222,14.5731707317073,-239,13.5365853658537,-169,10.3048780487805,-118,0.51304347826087,79,0.343478260869565,136,-0.663414634146342,
15794288,26816.40625,9824,-6.02329858982219,-15856,-9.72164316370325,-15952,9.78050275904353,-25,37.1951219512195,-610,1.52439024390244,-300,18.2926829268293,-119,0.517391304347826,78,0.339130434782609,136,-0.663414634146342,
15794928,26835.9375,11024,-6.75904353157572,-16128,-9.88841201716738,-18608,11.408951563458,-25,37.1951219512195,-610,1.52439024390244,-300,18.2926829268293,-117,0.508695652173913,75,0.326086956521739,140,-0.682926829268293,
15795568,26855.46875,11168,-6.84733292458614,-16752,-10.2709993868792,-20256,12.4193746167995,586,72.9268292682927,-1196,-35.7317073170732,-483,29.4512195121951,-120,0.521739130434783,75,0.326086956521739,140,-0.682926829268293,
15796208,26875,10752,-6.59227467811159,-17728,-10.8694052728387,-21744,13.3316983445739,586,72.9268292682927,-1196,-35.7317073170732,-483,29.4512195121951,-119,0.517391304347826,75,0.326086956521739,143,-0.697560975609756,
15796848,26894.53125,10624,-6.51379521765788,-18624,-11.4187614960147,-22720,13.9301042305334,763,116.890243902439,-1917,-46.5243902439024,-588,35.8536585365854,-123,0.534782608695652,74,0.321739130434783,150,-0.731707317073171,
15797488,26914.0625,11024,-6.75904353157572,-19808,-12.1446965052115,-22784,13.9693439607603,640,164.817073170732,-2703,-39.0243902439024,-731,44.5731707317073,-124,0.539130434782609,70,0.304347826086957,155,-0.75609756097561,
15798128,26933.59375,11648,-7.14163090128755,-20944,-12.8412017167382,-21664,13.2826486817903,640,164.817073170732,-2703,-39.0243902439024,-731,44.5731707317073,-125,0.543478260869565,64,0.278260869565217,164,-0.8,
15798768,26953.125,11840,-7.25935009196812,-21776,-13.3513182096873,-20064,12.3016554261189,613,200.792682926829,-3293,-37.3780487804878,-919,56.0365853658537,-125,0.543478260869565,64,0.278260869565217,169,-0.824390243902439,
15799408,26972.65625,11920,-7.30839975475169,-21936,-13.4494175352544,-17920,10.9871244635193,613,200.792682926829,-3293,-37.3780487804878,-919,56.0365853658537,-126,0.547826086956522,53,0.230434782608696,178,-0.868292682926829,
15800048,26992.1875,11808,-7.23973022685469,-21584,-13.2335990190067,-16032,9.8295524218271,759,222.317073170732,-3646,-46.280487804878,-1048,63.9024390243902,-125,0.543478260869565,44,0.191304347826087,187,-0.91219512195122,
15800688,27011.71875,11008,-6.74923359901901,-20880,-12.8019619865113,-14368,8.80931943592888,914,230.365853658537,-3778,-55.7317073170732,-1077,65.6707317073171,-126,0.547826086956522,40,0.173913043478261,190,-0.926829268292683,
15801328,27031.25,10080,-6.18025751072961,-19632,-12.0367872470877,-12560,7.70079705702023,914,230.365853658537,-3778,-55.7317073170732,-1077,65.6707317073171,-122,0.530434782608696,29,0.126086956521739,200,-0.975609756097561,
15801968,27050.78125,9088,-5.57204169221337,-18112,-11.1048436541999,-10784,6.61189454322501,830,232.987804878049,-3821,-50.609756097561,-1063,64.8170731707317,-124,0.539130434782609,24,0.104347826086957,205,-1,
15802608,27070.3125,7776,-4.76762722256284,-15840,-9.71183323114654,-8928,5.47394236664623,588,228.59756097561,-3749,-35.8536585365854,-984,60,-122,0.530434782608696,15,0.0652173913043478,211,-1.02926829268293,
15803248,27089.84375,7280,-4.46351931330472,-13328,-8.17167381974249,-7552,4.63028816676885,588,228.59756097561,-3749,-35.8536585365854,-984,60,-120,0.521739130434783,5,0.0217391304347826,214,-1.04390243902439,
15803888,27109.375,6832,-4.18884120171674,-11040,-6.76885346413243,-6912,4.23789086450031,467,207.134146341463,-3397,-28.4756097560976,-899,54.8170731707317,-119,0.517391304347826,-8,-0.0347826086956522,219,-1.06829268292683,
15804528,27128.90625,6448,-3.95340282035561,-8880,-5.44451256897609,-6480,3.97302268546904,467,207.134146341463,-3397,-28.4756097560976,-899,54.8170731707317,-120,0.521739130434783,-9,-0.0391304347826087,220,-1.07317073170732,
15805168,27148.4375,6400,-3.92397302268547,-7072,-4.33599019006744,-6080,3.7277743715512,479,181.585365853659,-2978,-29.2073170731707,-764,46.5853658536585,-117,0.508695652173913,-21,-0.091304347826087,224,-1.09268292682927,
15805808,27167.96875,5840,-3.58062538320049,-5200,-3.18822808093194,-5632,3.45309625996321,663,157.439024390244,-2582,-40.4268292682927,-538,32.8048780487805,-116,0.504347826086957,-22,-0.0956521739130435,222,-1.08292682926829,
15806448,27187.5,5728,-3.51195585530349,-3136,-1.92274678111588,-4656,2.85469037400368,663,157.439024390244,-2582,-40.4268292682927,-538,32.8048780487805,-112,0.48695652173913,-36,-0.156521739130435,225,-1.09756097560976,
15807088,27207.03125,5664,-3.47271612507664,-1488,-0.912323727774372,-4304,2.63887185775598,633,127.682926829268,-2094,-38.5975609756098,-284,17.3170731707317,-111,0.482608695652174,-40,-0.173913043478261,224,-1.09268292682927,
15807728,27226.5625,5856,-3.5904353157572,256,0.156958920907419,-3904,2.39362354383814,633,127.682926829268,-2094,-38.5975609756098,-284,17.3170731707317,-107,0.465217391304348,-46,-0.2,224,-1.09268292682927,
15808368,27246.09375,6576,-4.03188228080932,1568,0.96137339055794,-4080,2.50153280196199,563,98.0487804878049,-1608,-34.3292682926829,-11,0.670731707317073,-105,0.456521739130435,-52,-0.226086956521739,227,-1.10731707317073,
15809008,27265.625,7744,-4.74800735744942,2000,1.22624156958921,-4352,2.66830165542612,256,70.7317073170732,-1160,-15.609756097561,107,-6.52439024390244,-105,0.456521739130435,-54,-0.234782608695652,227,-1.10731707317073,
15809648,27285.15625,9040,-5.54261189454322,2976,1.82464745554874,-4240,2.59963212752912,256,70.7317073170732,-1160,-15.609756097561,107,-6.52439024390244,-106,0.460869565217391,-53,-0.230434782608696,226,-1.10243902439024,
15810288,27304.6875,11216,-6.87676272225628,3536,2.16799509503372,-4160,2.55058246474555,-144,45.0609756097561,-739,8.78048780487805,78,-4.75609756097561,-108,0.469565217391304,-54,-0.234782608695652,225,-1.09756097560976,
15810928,27324.21875,14256,-8.74064990803188,3584,2.19742489270386,-4400,2.69773145309626,-243,17.2560975609756,-283,14.8170731707317,-197,12.0121951219512,-105,0.456521739130435,-58,-0.252173913043478,223,-1.08780487804878,
15811568,27343.75,15360,-9.41753525444513,3536,2.16799509503372,-4576,2.80564071122011,-243,17.2560975609756,-283,14.8170731707317,-197,12.0121951219512,-107,0.465217391304348,-57,-0.247826086956522,225,-1.09756097560976,
15812208,27363.28125,16784,-10.2906192519926,3120,1.91293684855917,-5536,3.39423666462293,86,-6.21951219512195,102,-5.24390243902439,-824,50.2439024390244,-104,0.452173913043478,-63,-0.273913043478261,225,-1.09756097560976,
15812848,27382.8125,17200,-10.5456774984672,2688,1.6480686695279,-7008,4.29675045984059,86,-6.21951219512195,102,-5.24390243902439,-824,50.2439024390244,-102,0.443478260869565,-57,-0.247826086956522,225,-1.09756097560976,
15813488,27402.34375,17520,-10.7418761496015,1968,1.20662170447578,-8096,4.96382587369712,288,-20.7926829268293,341,-17.5609756097561,-1543,94.0853658536585,-101,0.439130434782609,-56,-0.243478260869565,225,-1.09756097560976,
15814128,27421.875,18336,-11.2421827099939,1552,0.951563458001226,-9280,5.68976088289393,187,-33.719512195122,553,-11.4024390243902,-2232,136.09756097561,-98,0.426086956521739,-54,-0.234782608695652,228,-1.11219512195122,
15814768,27441.40625,18656,-11.4383813611281,736,0.451256897608829,-10544,6.46474555487431,187,-33.719512195122,553,-11.4024390243902,-2232,136.09756097561,-96,0.417391304347826,-58,-0.252173913043478,226,-1.10243902439024,
15815408,27460.9375,18688,-11.4580012262416,-96,-0.058859595340282,-11952,7.32801961986511,293,-40.1829268292683,659,-17.8658536585366,-2848,173.658536585366,-93,0.404347826086957,-55,-0.239130434782609,226,-1.10243902439024,
15816048,27480.46875,17504,-10.7320662170448,-1328,-0.814224402207235,-12624,7.74003678724709,293,-40.1829268292683,659,-17.8658536585366,-2848,173.658536585366,-94,0.408695652173913,-49,-0.21304347826087,226,-1.10243902439024,
15816688,27500,16032,-9.8295524218271,-2944,-1.80502759043532,-13552,8.30901287553648,591,-44.7560975609756,734,-36.0365853658537,-3477,212.012195121951,-88,0.382608695652174,-46,-0.2,225,-1.09756097560976,
15817328,27519.53125,14160,-8.6817903126916,-4640,-2.84488044144697,-14528,8.90741876149601,886,-42.6219512195122,699,-54.0243902439024,-4106,250.365853658537,-84,0.365217391304348,-45,-0.195652173913043,226,-1.10243902439024,
15817968,27539.0625,11264,-6.90619251992643,-6704,-4.11036174126303,-15504,9.50582464745555,886,-42.6219512195122,699,-54.0243902439024,-4106,250.365853658537,-80,0.347826086956522,-35,-0.152173913043478,226,-1.10243902439024,
15818608,27558.59375,7760,-4.75781729000613,-8816,-5.40527283874923,-15968,9.79031269160024,770,-26.6463414634146,437,-46.9512195121951,-4688,285.853658536585,-78,0.339130434782609,-35,-0.152173913043478,223,-1.08780487804878,
15819248,27578.125,4112,-2.52115266707541,-10176,-6.2391171060699,-15872,9.73145309625996,770,-26.6463414634146,437,-46.9512195121951,-4688,285.853658536585,-77,0.334782608695652,-30,-0.130434782608696,223,-1.08780487804878,
15819888,27597.65625,304,-0.18638871857756,-10496,-6.43531575720417,-15680,9.6137339055794,388,-7.74390243902439,127,-23.6585365853659,-4791,292.134146341463,-75,0.326086956521739,-26,-0.11304347826087,221,-1.0780487804878,
15820528,27617.1875,-3104,1.90312691600245,-9696,-5.94481912936849,-15872,9.73145309625996,646,-6.34146341463415,104,-39.390243902439,-4363,266.036585365854,-72,0.31304347826087,-27,-0.117391304347826,224,-1.09268292682927,
15821168,27636.71875,-5248,3.21765787860208,-9696,-5.94481912936849,-16352,10.0257510729614,646,-6.34146341463415,104,-39.390243902439,-4363,266.036585365854,-70,0.304347826086957,-22,-0.0956521739130435,223,-1.08780487804878,
15821808,27656.25,-7984,4.89515634580012,-10112,-6.19987737584304,-16384,10.0453709380748,1112,-2.5609756097561,42,-67.8048780487805,-3927,239.451219512195,-68,0.295652173913043,-21,-0.091304347826087,221,-1.0780487804878,
15822448,27675.78125,-12080,7.40649908031882,-9328,-5.71919068056407,-15616,9.57449417535254,1556,1.76829268292683,-29,-94.8780487804878,-3147,191.890243902439,-67,0.291304347826087,-21,-0.091304347826087,221,-1.0780487804878,
15823088,27695.3125,-15952,9.78050275904353,-8320,-5.10116492949111,-14976,9.182096873084,1556,1.76829268292683,-29,-94.8780487804878,-3147,191.890243902439,-63,0.273913043478261,-13,-0.0565217391304348,217,-1.05853658536585,
15823728,27714.84375,-19232,11.7915389331698,-7792,-4.77743715511956,-14336,8.78969957081545,1218,4.02439024390244,-66,-74.2682926829268,-2316,141.219512195122,-62,0.269565217391304,-10,-0.0434782608695652,216,-1.05365853658537,
15824368,27734.375,-22240,13.635806253832,-6368,-3.90435315757204,-13616,8.34825260576334,1218,4.02439024390244,-66,-74.2682926829268,-2316,141.219512195122,-56,0.243478260869565,-13,-0.0565217391304348,216,-1.05365853658537,
15825008,27753.90625,-23264,14.2636419374617,-5088,-3.11955855303495,-13504,8.27958307786634,543,0,0,-33.109756097561,-1332,81.219512195122,-57,0.247826086956522,-9,-0.0391304347826087,215,-1.04878048780488,
15825648,27773.4375,-22720,13.9301042305334,-5264,-3.2274678111588,-13632,8.35806253832005,144,-5.54878048780488,91,-8.78048780487805,-345,21.0365853658537,-58,0.252173913043478,-8,-0.0347826086956522,215,-1.04878048780488,
15826288,27792.96875,-21920,13.4396076026977,-5504,-3.3746167995095,-13552,8.30901287553648,144,-5.54878048780488,91,-8.78048780487805,-345,21.0365853658537,-56,0.243478260869565,-11,-0.0478260869565217,215,-1.04878048780488,
15826928,27812.5,-21104,12.9393010423053,-5872,-3.60024524831392,-13024,7.98528510116493,-34,-7.25609756097561,119,2.07317073170732,548,-33.4146341463415,-55,0.239130434782609,-11,-0.0478260869565217,216,-1.05365853658537,
15827568,27832.03125,-20064,12.3016554261189,-6112,-3.74739423666462,-12448,7.63212752912324,-34,-7.25609756097561,119,2.07317073170732,548,-33.4146341463415,-57,0.247826086956522,-8,-0.0347826086956522,216,-1.05365853658537,
15828208,27851.5625,-18000,11.0361741263029,-6144,-3.76701410177805,-12992,7.9656652360515,-154,-17.1951219512195,282,9.39024390243902,1367,-83.3536585365854,-56,0.243478260869565,-8,-0.0347826086956522,214,-1.04390243902439,
15828848,27871.09375,-16224,9.94727161250766,-6816,-4.17903126916002,-13776,8.44635193133047,262,-29.5731707317073,485,-15.9756097560976,2029,-123.719512195122,-55,0.239130434782609,-5,-0.0217391304347826,213,-1.0390243902439,
15829488,27890.625,-15904,9.75107296137339,-7216,-4.42427958307787,-13920,8.53464132434089,262,-29.5731707317073,485,-15.9756097560976,2029,-123.719512195122,-52,0.226086956521739,-7,-0.0304347826086957,214,-1.04390243902439,
15830128,27910.15625,-16096,9.86879215205395,-7184,-4.40465971796444,-13856,8.49540159411404,487,-37.0121951219512,607,-29.6951219512195,2633,-160.548780487805,-53,0.230434782608696,-9,-0.0391304347826087,212,-1.03414634146341,
15830768,27929.6875,-15696,9.62354383813611,-7760,-4.75781729000613,-14080,8.63274064990803,301,-47.6829268292683,782,-18.3536585365854,3167,-193.109756097561,-47,0.204347826086957,-12,-0.0521739130434783,212,-1.03414634146341,
15831408,27949.21875,-14720,9.02513795217658,-8672,-5.31698344573881,-14384,8.81912936848559,301,-47.6829268292683,782,-18.3536585365854,3167,-193.109756097561,-48,0.208695652173913,-12,-0.0521739130434783,212,-1.03414634146341,
15832048,27968.75,-13216,8.10300429184549,-9440,-5.78786020846107,-14720,9.02513795217658,274,-52.6829268292683,864,-16.7073170731707,3652,-222.682926829268,-45,0.195652173913043,-18,-0.0782608695652174,214,-1.04390243902439,
15832688,27988.28125,-12032,7.37706928264868,-10256,-6.28816676885346,-15056,9.23114653586757,274,-52.6829268292683,864,-16.7073170731707,3652,-222.682926829268,-42,0.182608695652174,-18,-0.0782608695652174,211,-1.02926829268293,
15833328,28007.8125,-11200,6.86695278969957,-10944,-6.70999386879215,-15344,9.40772532188841,377,-56.9512195121951,934,-22.9878048780488,4132,-251.951219512195,-39,0.169565217391304,-23,-0.1,211,-1.02926829268293,
15833968,28027.34375,-9936,6.09196811771919,-11552,-7.08277130594727,-16000,9.80993255671367,284,-60.9756097560976,1000,-17.3170731707317,4485,-273.475609756098,-40,0.173913043478261,-27,-0.117391304347826,212,-1.03414634146341,
15834608,28046.875,-8688,5.32679337829552,-12368,-7.58307786633967,-16608,10.1827099938688,284,-60.9756097560976,1000,-17.3170731707317,4485,-273.475609756098,-36,0.156521739130435,-31,-0.134782608695652,210,-1.02439024390244,
15835248,28066.40625,-6480,3.97302268546904,-13072,-8.01471489883507,-17440,10.6928264868179,142,-60.609756097561,994,-8.65853658536586,4740,-289.024390243902,-36,0.156521739130435,-34,-0.147826086956522,210,-1.02439024390244,
15835888,28085.9375,-4832,2.96259963212753,-13408,-8.22072348252606,-18064,11.0754138565297,142,-60.609756097561,994,-8.65853658536586,4740,-289.024390243902,-37,0.160869565217391,-34,-0.147826086956522,209,-1.01951219512195,
15836528,28105.46875,-3520,2.15818516247701,-13872,-8.50521152667075,-18176,11.1440833844267,220,-54.9390243902439,901,-13.4146341463415,4966,-302.80487804878,-38,0.165217391304348,-37,-0.160869565217391,211,-1.02926829268293,
15837168,28125,-2176,1.33415082771306,-14320,-8.77988963825874,-18528,11.3599019006744,53,-44.0853658536585,723,-3.23170731707317,5025,-306.40243902439,-39,0.169565217391304,-40,-0.173913043478261,211,-1.02926829268293,
15837808,28144.53125,-1152,0.706315144083384,-14448,-8.85836909871245,-18800,11.5266707541386,53,-44.0853658536585,723,-3.23170731707317,5025,-306.40243902439,-41,0.178260869565217,-41,-0.178260869565217,212,-1.03414634146341,
15838448,28164.0625,400,-0.245248313917842,-15152,-9.29000613120785,-18816,11.5364806866953,-582,-26.4634146341463,434,35.4878048780488,4970,-303.048780487805,-44,0.191304347826087,-49,-0.21304347826087,213,-1.0390243902439,
15839088,28183.59375,1872,-1.1477621091355,-15440,-9.46658491722869,-18512,11.3500919681177,-1304,0.121951219512195,-2,79.5121951219512,4712,-287.317073170732,-49,0.21304347826087,-56,-0.243478260869565,218,-1.06341463414634,
15839728,28203.125,3376,-2.06989576946658,-14784,-9.06437768240343,-16864,10.3396689147762,-1304,0.121951219512195,-2,79.5121951219512,4712,-287.317073170732,-52,0.226086956521739,-59,-0.256521739130435,218,-1.06341463414634,
15840368,28222.65625,6800,-4.16922133660331,-14064,-8.62293071735132,-16240,9.95708154506438,-1818,16.4634146341463,-270,110.853658536585,4435,-270.426829268293,-63,0.273913043478261,-63,-0.273913043478261,222,-1.08292682926829,
15841008,28242.1875,10608,-6.50398528510116,-13232,-8.11281422440221,-16624,10.1925199264255,-1818,16.4634146341463,-270,110.853658536585,4435,-270.426829268293,-69,0.3,-67,-0.291304347826087,220,-1.07317073170732,
15841648,28261.71875,12880,-7.89699570815451,-12944,-7.93623543838136,-17088,10.4770079705702,-1275,24.0853658536585,-395,77.7439024390244,4150,-253.048780487805,-78,0.339130434782609,-70,-0.304347826086957,224,-1.09268292682927,
15842288,28281.25,14464,-8.86817903126916,-11120,-6.817903126916,-17712,10.859595340282,-800,33.4146341463415,-548,48.7804878048781,3910,-238.414634146341,-82,0.356521739130435,-75,-0.326086956521739,227,-1.10731707317073,
15842928,28300.78125,14928,-9.15266707541386,-8640,-5.29736358062538,-17616,10.8007357449418,-800,33.4146341463415,-548,48.7804878048781,3910,-238.414634146341,-91,0.395652173913043,-75,-0.326086956521739,225,-1.09756097560976,
15843568,28320.3125,15424,-9.45677498467198,-6944,-4.25751072961373,-16048,9.83936235438381,-938,46.7682926829268,-767,57.1951219512195,3522,-214.756097560976,-92,0.4,-77,-0.334782608695652,225,-1.09756097560976,
15844208,28339.84375,17376,-10.653586756591,-4832,-2.96259963212753,-14656,8.98589822194972,-938,46.7682926829268,-767,57.1951219512195,3522,-214.756097560976,-103,0.447826086956522,-80,-0.347826086956522,226,-1.10243902439024,
15844848,28359.375,19776,-12.1250766400981,-2816,-1.72654812998161,-13888,8.51502145922747,-1007,50.4268292682927,-827,61.4024390243902,3006,-183.292682926829,-106,0.460869565217391,-83,-0.360869565217391,226,-1.10243902439024,
15845488,28378.90625,20976,-12.8608215818516,-2096,-1.28510116492949,-13664,8.37768240343348,-818,49.8170731707317,-817,49.8780487804878,2322,-141.585365853659,-114,0.495652173913044,-85,-0.369565217391304,225,-1.09756097560976,
15846128,28398.4375,21344,-13.086450030656,-112,-0.0686695278969957,-12976,7.95585530349479,-818,49.8170731707317,-817,49.8780487804878,2322,-141.585365853659,-115,0.5,-86,-0.373913043478261,222,-1.08292682926829,
15846768,28417.96875,22016,-13.498467198038,1408,0.863274064990803,-11456,7.02391171060699,-1028,51.219512195122,-840,62.6829268292683,1516,-92.4390243902439,-124,0.539130434782609,-88,-0.382608695652174,222,-1.08292682926829,
15847408,28437.5,22656,-13.8908645003066,3008,1.84426732066217,-9808,6.01348865726548,-1028,51.219512195122,-840,62.6829268292683,1516,-92.4390243902439,-125,0.543478260869565,-85,-0.369565217391304,223,-1.08780487804878,
15848048,28457.03125,23104,-14.1655426118945,3888,2.38381361128142,-8160,5.00306560392397,-833,39.5731707317073,-649,50.7926829268293,860,-52.4390243902439,-129,0.560869565217391,-86,-0.373913043478261,220,-1.07317073170732,
15848688,28476.5625,24016,-14.7247087676272,4576,2.80564071122011,-6976,4.27713059472716,-682,19.8780487804878,-326,41.5853658536585,271,-16.5243902439024,-129,0.560869565217391,-92,-0.4,220,-1.07317073170732,
15849328,28496.09375,24752,-15.1759656652361,4928,3.02145922746781,-7008,4.29675045984059,-682,19.8780487804878,-326,41.5853658536585,271,-16.5243902439024,-131,0.569565217391304,-90,-0.391304347826087,218,-1.06341463414634,
15849968,28515.625,24672,-15.1269160024525,4416,2.70754138565297,-7168,4.39484978540773,-410,-2.5609756097561,42,25,-405,24.6951219512195,-133,0.578260869565217,-90,-0.391304347826087,218,-1.06341463414634,
15850608,28535.15625,24016,-14.7247087676272,3968,2.43286327406499,-7360,4.51256897608829,-259,-20.5487804878049,337,15.7926829268293,-1103,67.2560975609756,-133,0.578260869565217,-91,-0.395652173913043,217,-1.05853658536585,
15851248,28554.6875,23328,-14.3028816676885,2832,1.73635806253832,-8064,4.94420600858369,-259,-20.5487804878049,337,15.7926829268293,-1103,67.2560975609756,-132,0.573913043478261,-89,-0.38695652173913,219,-1.06829268292683,
15851888,28574.21875,22624,-13.8712446351931,2096,1.28510116492949,-8704,5.33660331085224,-304,-35.6707317073171,585,18.5365853658537,-1774,108.170731707317,-131,0.569565217391304,-89,-0.38695652173913,219,-1.06829268292683,
15852528,28593.75,22864,-14.0183936235438,928,0.568976088289393,-9552,5.85652973635806,-304,-35.6707317073171,585,18.5365853658537,-1774,108.170731707317,-128,0.556521739130435,-88,-0.382608695652174,220,-1.07317073170732,
15853168,28613.28125,21872,-13.4101778050276,-1056,-0.647455548743102,-10176,6.2391171060699,-28,-50.609756097561,830,1.70731707317073,-2366,144.268292682927,-125,0.543478260869565,-86,-0.373913043478261,219,-1.06829268292683,
15853808,28632.8125,20096,-12.3212752912324,-2608,-1.59901900674433,-10784,6.61189454322501,220,-59.5121951219512,976,-13.4146341463415,-2902,176.951219512195,-125,0.543478260869565,-86,-0.373913043478261,220,-1.07317073170732,
15854448,28652.34375,19488,-11.9484978540773,-4128,-2.53096259963213,-11648,7.14163090128755,220,-59.5121951219512,976,-13.4146341463415,-2902,176.951219512195,-121,0.526086956521739,-84,-0.365217391304348,221,-1.0780487804878,
15855088,28671.875,18576,-11.3893316983446,-6016,-3.68853464132434,-12288,7.5340282035561,427,-65.609756097561,1076,-26.0365853658537,-3400,207.317073170732,-114,0.495652173913044,-85,-0.369565217391304,223,-1.08780487804878,
15855728,28691.40625,16512,-10.1238503985285,-7296,-4.47332924586143,-12960,7.94604537093807,427,-65.609756097561,1076,-26.0365853658537,-3400,207.317073170732,-107,0.465217391304348,-84,-0.365217391304348,224,-1.09268292682927,
15856368,28710.9375,14144,-8.67198038013489,-8224,-5.04230533415083,-13472,8.25996321275291,477,-64.0853658536585,1051,-29.0853658536585,-3842,234.268292682927,-104,0.452173913043478,-79,-0.343478260869565,223,-1.08780487804878,
15857008,28730.46875,12944,-7.93623543838136,-8960,-5.49356223175966,-13776,8.44635193133047,196,-63.2317073170732,1037,-11.9512195121951,-4185,255.182926829268,-97,0.421739130434783,-75,-0.326086956521739,225,-1.09756097560976,
15857648,28750,13392,-8.21091354996934,-9776,-5.99386879215205,-14416,8.83874923359902,196,-63.2317073170732,1037,-11.9512195121951,-4185,255.182926829268,-94,0.408695652173913,-73,-0.317391304347826,222,-1.08292682926829,
15858288,28769.53125,12640,-7.7498467198038,-10912,-6.69037400367872,-15504,9.50582464745555,488,-64.8170731707317,1063,-29.7560975609756,-4434,270.365853658537,-86,0.373913043478261,-71,-0.308695652173913,226,-1.10243902439024,
15858928,28789.0625,10576,-6.48436541998774,-12048,-7.3868792152054,-16352,10.0257510729614,578,-53.719512195122,881,-35.2439024390244,-4628,282.19512195122,-85,0.369565217391304,-66,-0.28695652173913,224,-1.09268292682927,
15859568,28808.59375,8736,-5.35622317596567,-12304,-7.54383813611281,-16320,10.0061312078479,578,-53.719512195122,881,-35.2439024390244,-4628,282.19512195122,-78,0.339130434782609,-60,-0.260869565217391,224,-1.09268292682927,
15860208,28828.125,7152,-4.38503985285101,-12800,-7.84794604537094,-16464,10.0944206008584,348,-46.3414634146341,760,-21.219512195122,-4821,293.963414634146,-74,0.321739130434783,-55,-0.239130434782609,224,-1.09268292682927,
15860848,28847.65625,6336,-3.88473329245861,-13104,-8.0343347639485,-17280,10.5947271612508,348,-46.3414634146341,760,-21.219512195122,-4821,293.963414634146,-67,0.291304347826087,-54,-0.234782608695652,223,-1.08780487804878,
15861488,28867.1875,5648,-3.46290619251993,-13536,-8.29920294297977,-18224,11.1735131820969,378,-39.8780487804878,654,-23.0487804878049,-4908,299.268292682927,-68,0.295652173913043,-45,-0.195652173913043,221,-1.0780487804878,
15862128,28886.71875,3872,-2.37400367872471,-14448,-8.85836909871245,-18544,11.3697118332311,601,-24.2073170731707,397,-36.6463414634146,-5014,305.731707317073,-65,0.282608695652174,-40,-0.173913043478261,220,-1.07317073170732,
15862768,28906.25,960,-0.58859595340282,-15008,-9.20171673819742,-18048,11.065603923973,601,-24.2073170731707,397,-36.6463414634146,-5014,305.731707317073,-60,0.260869565217391,-40,-0.173913043478261,222,-1.08292682926829,
15863408,28925.78125,-864,0.529736358062538,-14944,-9.16247700797057,-17728,10.8694052728387,228,-5.67073170731707,93,-13.9024390243902,-5034,306.951219512195,-60,0.260869565217391,-31,-0.134782608695652,219,-1.06829268292683,
15864048,28945.3125,-1792,1.09871244635193,-14720,-9.02513795217658,-17712,10.859595340282,228,-5.67073170731707,93,-13.9024390243902,-5034,306.951219512195,-58,0.252173913043478,-29,-0.126086956521739,218,-1.06341463414634,
15864688,28964.84375,-4048,2.48191293684856,-14288,-8.76026977314531,-17184,10.5358675659105,302,5.36585365853659,-88,-18.4146341463415,-4871,297.012195121951,-56,0.243478260869565,-24,-0.104347826086957,218,-1.06341463414634,
15865328,28984.375,-6752,4.13979153893317,-13248,-8.12262415695892,-16512,10.1238503985285,530,10.2439024390244,-168,-32.3170731707317,-4447,271.158536585366,-58,0.252173913043478,-23,-0.1,218,-1.06341463414634,
15865968,29003.90625,-8896,5.4543225015328,-12352,-7.57326793378295,-16288,9.98651134273452,530,10.2439024390244,-168,-32.3170731707317,-4447,271.158536585366,-58,0.252173913043478,-18,-0.0782608695652174,218,-1.06341463414634,
15866608,29023.4375,-10400,6.37645616186389,-11952,-7.32801961986511,-16560,10.1532801961987,533,9.87804878048781,-162,-32.5,-3941,240.304878048781,-59,0.256521739130435,-14,-0.0608695652173913,216,-1.05365853658537,
15867248,29042.96875,-12064,7.39668914776211,-11776,-7.22011036174126,-16416,10.0649908031882,495,12.6219512195122,-207,-30.1829268292683,-3477,212.012195121951,-57,0.247826086956522,-13,-0.0565217391304348,217,-1.05853658536585,
15867888,29062.5,-14416,8.83874923359902,-11088,-6.79828326180257,-15376,9.42734518700184,495,12.6219512195122,-207,-30.1829268292683,-3477,212.012195121951,-60,0.260869565217391,-5,-0.0217391304347826,215,-1.04878048780488,
15868528,29082.03125,-18016,11.0459840588596,-9472,-5.80748007357449,-14288,8.76026977314531,740,10.4878048780488,-172,-45.1219512195122,-2790,170.121951219512,-59,0.256521739130435,-2,-0.00869565217391304,214,-1.04390243902439,
15869168,29101.5625,-21312,13.0668301655426,-7744,-4.74800735744942,-13808,8.4659717964439,740,10.4878048780488,-172,-45.1219512195122,-2790,170.121951219512,-59,0.256521739130435,-4,-0.0173913043478261,213,-1.0390243902439,
15869808,29121.09375,-23216,14.2342121397915,-7392,-4.53218884120172,-14064,8.62293071735132,676,6.52439024390244,-107,-41.219512195122,-1838,112.073170731707,-58,0.252173913043478,-3,-0.0130434782608696,213,-1.0390243902439,
15870448,29140.625,-24320,14.9110974862048,-7440,-4.56161863887186,-13856,8.49540159411404,256,6.95121951219512,-114,-15.609756097561,-889,54.2073170731707,-57,0.247826086956522,1,0.00434782608695652,213,-1.0390243902439,
15871088,29160.15625,-25584,15.6860821581852,-6816,-4.17903126916002,-13456,8.2501532801962,256,6.95121951219512,-114,-15.609756097561,-889,54.2073170731707,-56,0.243478260869565,0,0,211,-1.02926829268293,
15871728,29179.6875,-25568,15.6762722256284,-5856,-3.5904353157572,-12800,7.84794604537094,-183,3.41463414634146,-56,11.1585365853659,7,-0.426829268292683,-55,0.239130434782609,-1,-0.00434782608695652,213,-1.0390243902439,
15872368,29199.21875,-23312,14.2930717351318,-5584,-3.42366646229307,-12624,7.74003678724709,-183,3.41463414634146,-56,11.1585365853659,7,-0.426829268292683,-57,0.247826086956522,0,0,210,-1.02439024390244,
15873008,29218.75,-20672,12.6744328632741,-6400,-3.92397302268547,-12784,7.83813611281422,-306,-9.69512195121951,159,18.6585365853659,884,-53.9024390243902,-57,0.247826086956522,1,0.00434782608695652,211,-1.02926829268293,
15873648,29238.28125,-18992,11.6443899448191,-7120,-4.36541998773758,-12784,7.83813611281422,44,-21.890243902439,359,-2.68292682926829,1699,-103.59756097561,-56,0.243478260869565,-3,-0.0130434782608696,214,-1.04390243902439,
15874288,29257.8125,-17568,10.7713059472716,-7312,-4.48313917841815,-12944,7.93623543838136,44,-21.890243902439,359,-2.68292682926829,1699,-103.59756097561,-56,0.243478260869565,1,0.00434782608695652,209,-1.01951219512195,
15874928,29277.34375,-16240,9.95708154506438,-7744,-4.74800735744942,-13456,8.2501532801962,120,-35.3048780487805,579,-7.31707317073171,2302,-140.365853658537,-52,0.226086956521739,0,0,211,-1.02926829268293,
15875568,29296.875,-15040,9.22133660331085,-8560,-5.24831391784181,-14016,8.59350091968118,120,-35.3048780487805,579,-7.31707317073171,2302,-140.365853658537,-53,0.230434782608696,2,0.00869565217391304,210,-1.02439024390244,
15876208,29316.40625,-13808,8.4659717964439,-9456,-5.79767014101778,-14224,8.72103004291846,203,-43.719512195122,717,-12.3780487804878,2851,-173.841463414634,-52,0.226086956521739,-5,-0.0217391304347826,209,-1.01951219512195,
15876848,29335.9375,-12672,7.76946658491723,-10032,-6.15082771305947,-14352,8.79950950337216,138,-47.7439024390244,783,-8.41463414634146,3341,-203.719512195122,-48,0.208695652173913,-8,-0.0347826086956522,209,-1.01951219512195,
15877488,29355.46875,-11504,7.05334150827713,-10528,-6.4549356223176,-14640,8.97608828939301,138,-47.7439024390244,783,-8.41463414634146,3341,-203.719512195122,-49,0.21304347826087,-5,-0.0217391304347826,208,-1.01463414634146,
15878128,29375,-10544,6.46474555487431,-11424,-7.00429184549356,-15072,9.24095646842428,121,-51.4634146341463,844,-7.37804878048781,3738,-227.926829268293,-45,0.195652173913043,-7,-0.0304347826086957,209,-1.01951219512195,
15878768,29394.53125,-9968,6.11158798283262,-11824,-7.2495401594114,-15152,9.29000613120785,71,-52.0121951219512,853,-4.32926829268293,4057,-247.378048780488,-43,0.18695652173913,-10,-0.0434782608695652,209,-1.01951219512195,
15879408,29414.0625,-8752,5.36603310852238,-12256,-7.51440833844267,-15472,9.48620478234212,71,-52.0121951219512,853,-4.32926829268293,4057,-247.378048780488,-41,0.178260869565217,-14,-0.0608695652173913,209,-1.01951219512195,
15880048,29433.59375,-7280,4.46351931330472,-12752,-7.8185162477008,-15968,9.79031269160024,49,-54.4512195121951,893,-2.98780487804878,4338,-264.512195121951,-40,0.173913043478261,-12,-0.0521739130434783,207,-1.00975609756098,
15880688,29453.125,-6016,3.68853464132434,-13472,-8.25996321275291,-16576,10.1630901287554,49,-54.4512195121951,893,-2.98780487804878,4338,-264.512195121951,-39,0.169565217391304,-16,-0.0695652173913043,208,-1.01463414634146,
15881328,29472.65625,-4944,3.03126916002452,-14000,-8.58369098712446,-16896,10.3592887798896,-73,-52.6829268292683,864,4.45121951219512,4568,-278.536585365854,-38,0.165217391304348,-21,-0.091304347826087,209,-1.01951219512195,
15881968,29492.1875,-3200,1.96198651134273,-14224,-8.72103004291846,-17584,10.7811158798283,-229,-48.4756097560976,795,13.9634146341463,4747,-289.451219512195,-38,0.165217391304348,-31,-0.134782608695652,210,-1.02439024390244,
15882608,29511.71875,-1248,0.765174739423666,-14864,-9.113427345187,-18160,11.13427345187,-229,-48.4756097560976,795,13.9634146341463,4747,-289.451219512195,-37,0.160869565217391,-35,-0.152173913043478,210,-1.02439024390244,
15883248,29531.25,240,-0.147148988350705,-14864,-9.113427345187,-18240,11.1833231146536,-180,-39.6341463414634,650,10.9756097560976,4813,-293.475609756098,-39,0.169565217391304,-42,-0.182608695652174,214,-1.04390243902439,
15883888,29550.78125,1184,-0.725935009196812,-14800,-9.07418761496015,-18576,11.3893316983446,-180,-39.6341463414634,650,10.9756097560976,4813,-293.475609756098,-41,0.178260869565217,-42,-0.182608695652174,212,-1.03414634146341,
15884528,29570.3125,2080,-1.27529123237278,-15056,-9.23114653586757,-18096,11.0950337216432,-211,-28.6585365853659,470,12.8658536585366,4717,-287.621951219512,-45,0.195652173913043,-45,-0.195652173913043,213,-1.0390243902439,
15885168,29589.84375,2896,-1.77559779276517,-14784,-9.06437768240343,-18256,11.1931330472103,-254,-19.8780487804878,326,15.4878048780488,4585,-279.573170731707,-45,0.195652173913043,-52,-0.226086956521739,216,-1.05365853658537,
15885808,29609.375,2832,-1.73635806253832,-14752,-9.04475781729001,-18192,11.1538933169834,-254,-19.8780487804878,326,15.4878048780488,4585,-279.573170731707,-50,0.217391304347826,-57,-0.247826086956522,217,-1.05853658536585,
15886448,29628.90625,3152,-1.93255671367259,-14304,-8.77007970570202,-17936,10.996934396076,-779,-6.46341463414634,106,47.5,4356,-265.609756097561,-52,0.226086956521739,-58,-0.252173913043478,218,-1.06341463414634,
15887088,29648.4375,4992,-3.06069895769467,-13632,-8.35806253832005,-18064,11.0754138565297,-1109,5.67073170731707,-93,67.6219512195122,4086,-249.146341463415,-60,0.260869565217391,-58,-0.252173913043478,220,-1.07317073170732,
15887728,29667.96875,6864,-4.20846106683017,-12576,-7.71060698957695,-17824,10.928264868179,-1109,5.67073170731707,-93,67.6219512195122,4086,-249.146341463415,-64,0.278260869565217,-65,-0.282608695652174,223,-1.08780487804878,
15888368,29687.5,7696,-4.71857755977928,-11952,-7.32801961986511,-17232,10.5652973635806,-1014,14.2073170731707,-233,61.8292682926829,3844,-234.390243902439,-72,0.31304347826087,-70,-0.304347826086957,224,-1.09268292682927,
15889008,29707.03125,8384,-5.14040465971796,-11824,-7.2495401594114,-17280,10.5947271612508,-1014,14.2073170731707,-233,61.8292682926829,3844,-234.390243902439,-73,0.317391304347826,-72,-0.31304347826087,224,-1.09268292682927,
15889648,29726.5625,9184,-5.63090128755365,-11344,-6.95524218270999,-18176,11.1440833844267,-1220,20.6707317073171,-339,74.390243902439,3767,-229.69512195122,-83,0.360869565217391,-75,-0.326086956521739,225,-1.09756097560976,
15890288,29746.09375,10336,-6.33721643163703,-10208,-6.25873697118332,-18544,11.3697118332311,-1783,44.4512195121951,-729,108.719512195122,3694,-225.243902439024,-87,0.378260869565217,-70,-0.304347826086957,226,-1.10243902439024,
15890928,29765.625,13312,-8.16186388718578,-9280,-5.68976088289393,-17104,10.4868179031269,-1783,44.4512195121951,-729,108.719512195122,3694,-225.243902439024,-100,0.434782608695652,-75,-0.326086956521739,227,-1.10731707317073,
15891568,29785.15625,15824,-9.70202329858982,-7456,-4.57142857142857,-14464,8.86817903126916,-1623,64.6951219512195,-1061,98.9634146341463,3515,-214.329268292683,-103,0.447826086956522,-81,-0.352173913043478,227,-1.10731707317073,
15892208,29804.6875,18816,-11.5364806866953,-4400,-2.69773145309626,-12928,7.92642550582465,-1623,64.6951219512195,-1061,98.9634146341463,3515,-214.329268292683,-114,0.495652173913044,-84,-0.365217391304348,225,-1.09756097560976,
15892848,29824.21875,21792,-13.361128142244,-2912,-1.78540772532189,-12528,7.68117719190681,-1090,61.1585365853659,-1003,66.4634146341463,3077,-187.621951219512,-120,0.521739130434783,-82,-0.356521739130435,225,-1.09756097560976,
15893488,29843.75,22384,-13.7240956468424,-1760,-1.0790925812385,-12592,7.72041692213366,-695,56.0975609756098,-920,42.3780487804878,2283,-139.207317073171,-124,0.539130434782609,-85,-0.369565217391304,221,-1.0780487804878,
15894128,29863.28125,22416,-13.7437155119559,176,0.10790925812385,-11328,6.94543225015328,-695,56.0975609756098,-920,42.3780487804878,2283,-139.207317073171,-126,0.547826086956522,-88,-0.382608695652174,223,-1.08780487804878,
15894768,29882.8125,23600,-14.4696505211527,1808,1.10852237890864,-9632,5.90557939914163,-1026,48.8414634146341,-801,62.5609756097561,1354,-82.5609756097561,-131,0.569565217391304,-84,-0.365217391304348,220,-1.07317073170732,
